#                                                           
#  **    **    **     ****     ****  ******     *******     
# //**  **    ****   /**/**   **/** /*////**   **/////**    
#  //****    **//**  /**//** ** /** /*   /**  **     //**   
#   //**    **  //** /** //***  /** /******  /**      /**   
#    /**   **********/**  //*   /** /*//// **/**      /**   
#    /**  /**//////**/**   /    /** /*    /**//**     **    
#    /**  /**     /**/**        /** /*******  //*******     
#    //   //      // //         //  ///////    ///////      
#                                                           
#             GPL Version 3.1.2 Revision 297                
#                http://www.yambo-code.org                  
#
# Polarization (-<<X>>) [volume] @ IQ 1 :0.1000E-4  0.000     0.000
#
# - The gauge is transverse + [r,Vnl] -
#
# BSK|Identifier              :7834
#    |Dimension               :199
#    |Bands                   :1 - 200
#    |Exchange           [res]: yes
#    |Correlation        [res]: no
#    |Kernel`s coupling       : no
#    |Exchange           [cpl]: no
#    |Correlation        [cpl]: no
#    |ALDA kernel in R-space  : yes
#    |RL vectors    [exchange]:9045
#    |E/h energy range    [ev]:-1.000000 - -1.000000
#    |Coupling range     [o/o]: 100.0000 -  100.0000
#
#  E/ev[1]    alpha/Im   alpha/Re   alphao/Im  alphao/Re
#
  0.000     0.5580E-4   1.006     0.1031E-3   1.008   
 0.1502E-1  0.5596E-4   1.006     0.1035E-3   1.008   
 0.3003E-1  0.5612E-4   1.006     0.1039E-3   1.008   
 0.4505E-1  0.5628E-4   1.006     0.1043E-3   1.008   
 0.6006E-1  0.5644E-4   1.006     0.1047E-3   1.008   
 0.7508E-1  0.5660E-4   1.006     0.1051E-3   1.008   
 0.9009E-1  0.5676E-4   1.006     0.1055E-3   1.008   
 0.1051     0.5693E-4   1.006     0.1058E-3   1.009   
 0.1201     0.5709E-4   1.006     0.1062E-3   1.009   
 0.1351     0.5725E-4   1.006     0.1066E-3   1.009   
 0.1502     0.5742E-4   1.006     0.1070E-3   1.009   
 0.1652     0.5759E-4   1.006     0.1075E-3   1.009   
 0.1802     0.5775E-4   1.006     0.1079E-3   1.009   
 0.1952     0.5792E-4   1.006     0.1083E-3   1.009   
 0.2102     0.5809E-4   1.006     0.1087E-3   1.009   
 0.2252     0.5826E-4   1.006     0.1091E-3   1.009   
 0.2402     0.5843E-4   1.006     0.1095E-3   1.009   
 0.2553     0.5860E-4   1.006     0.1099E-3   1.009   
 0.2703     0.5877E-4   1.006     0.1104E-3   1.009   
 0.2853     0.5894E-4   1.006     0.1108E-3   1.009   
 0.3003     0.5911E-4   1.006     0.1112E-3   1.009   
 0.3153     0.5929E-4   1.006     0.1116E-3   1.009   
 0.3303     0.5946E-4   1.006     0.1121E-3   1.009   
 0.3453     0.5964E-4   1.006     0.1125E-3   1.009   
 0.3604     0.5981E-4   1.006     0.1129E-3   1.009   
 0.3754     0.5999E-4   1.006     0.1134E-3   1.009   
 0.3904     0.6017E-4   1.006     0.1138E-3   1.009   
 0.4054     0.6035E-4   1.006     0.1143E-3   1.009   
 0.4204     0.6052E-4   1.006     0.1147E-3   1.009   
 0.4354     0.6070E-4   1.006     0.1152E-3   1.009   
 0.4505     0.6089E-4   1.006     0.1156E-3   1.009   
 0.4655     0.6107E-4   1.006     0.1161E-3   1.009   
 0.4805     0.6125E-4   1.006     0.1165E-3   1.009   
 0.4955     0.6143E-4   1.006     0.1170E-3   1.009   
 0.5105     0.6162E-4   1.006     0.1174E-3   1.009   
 0.5255     0.6180E-4   1.006     0.1179E-3   1.009   
 0.5405     0.6199E-4   1.006     0.1184E-3   1.009   
 0.5556     0.6218E-4   1.006     0.1189E-3   1.009   
 0.5706     0.6236E-4   1.006     0.1193E-3   1.009   
 0.5856     0.6255E-4   1.006     0.1198E-3   1.009   
 0.6006     0.6274E-4   1.006     0.1203E-3   1.009   
 0.6156     0.6293E-4   1.006     0.1208E-3   1.009   
 0.6306     0.6312E-4   1.006     0.1213E-3   1.009   
 0.6456     0.6331E-4   1.006     0.1217E-3   1.009   
 0.6607     0.6351E-4   1.006     0.1222E-3   1.009   
 0.6757     0.6370E-4   1.006     0.1227E-3   1.009   
 0.6907     0.6390E-4   1.006     0.1232E-3   1.009   
 0.7057     0.6409E-4   1.007     0.1237E-3   1.009   
 0.7207     0.6429E-4   1.007     0.1242E-3   1.009   
 0.7357     0.6449E-4   1.007     0.1247E-3   1.009   
 0.7508     0.6469E-4   1.007     0.1252E-3   1.009   
 0.7658     0.6488E-4   1.007     0.1258E-3   1.009   
 0.7808     0.6509E-4   1.007     0.1263E-3   1.009   
 0.7958     0.6529E-4   1.007     0.1268E-3   1.009   
 0.8108     0.6549E-4   1.007     0.1273E-3   1.009   
 0.8258     0.6569E-4   1.007     0.1278E-3   1.009   
 0.8408     0.6590E-4   1.007     0.1284E-3   1.009   
 0.8559     0.6610E-4   1.007     0.1289E-3   1.009   
 0.8709     0.6631E-4   1.007     0.1294E-3   1.009   
 0.8859     0.6652E-4   1.007     0.1300E-3   1.009   
 0.9009     0.6672E-4   1.007     0.1305E-3   1.009   
 0.9159     0.6693E-4   1.007     0.1311E-3   1.009   
 0.9309     0.6714E-4   1.007     0.1316E-3   1.009   
 0.9459     0.6735E-4   1.007     0.1322E-3   1.010   
 0.9610     0.6757E-4   1.007     0.1327E-3   1.010   
 0.9760     0.6778E-4   1.007     0.1333E-3   1.010   
 0.9910     0.6799E-4   1.007     0.1339E-3   1.010   
  1.006     0.6821E-4   1.007     0.1344E-3   1.010   
  1.021     0.6843E-4   1.007     0.1350E-3   1.010   
  1.036     0.6864E-4   1.007     0.1356E-3   1.010   
  1.051     0.6886E-4   1.007     0.1361E-3   1.010   
  1.066     0.6908E-4   1.007     0.1367E-3   1.010   
  1.081     0.6930E-4   1.007     0.1373E-3   1.010   
  1.096     0.6953E-4   1.007     0.1379E-3   1.010   
  1.111     0.6975E-4   1.007     0.1385E-3   1.010   
  1.126     0.6997E-4   1.007     0.1391E-3   1.010   
  1.141     0.7020E-4   1.007     0.1397E-3   1.010   
  1.156     0.7042E-4   1.007     0.1403E-3   1.010   
  1.171     0.7065E-4   1.007     0.1409E-3   1.010   
  1.186     0.7088E-4   1.007     0.1415E-3   1.010   
  1.201     0.7111E-4   1.007     0.1421E-3   1.010   
  1.216     0.7134E-4   1.007     0.1428E-3   1.010   
  1.231     0.7157E-4   1.007     0.1434E-3   1.010   
  1.246     0.7181E-4   1.007     0.1440E-3   1.010   
  1.261     0.7204E-4   1.007     0.1447E-3   1.010   
  1.276     0.7228E-4   1.007     0.1453E-3   1.010   
  1.291     0.7251E-4   1.007     0.1459E-3   1.010   
  1.306     0.7275E-4   1.007     0.1466E-3   1.010   
  1.321     0.7299E-4   1.007     0.1472E-3   1.010   
  1.336     0.7323E-4   1.007     0.1479E-3   1.010   
  1.351     0.7347E-4   1.007     0.1485E-3   1.010   
  1.366     0.7371E-4   1.007     0.1492E-3   1.010   
  1.381     0.7396E-4   1.007     0.1499E-3   1.010   
  1.396     0.7420E-4   1.007     0.1505E-3   1.010   
  1.411     0.7445E-4   1.007     0.1512E-3   1.010   
  1.426     0.7470E-4   1.007     0.1519E-3   1.010   
  1.441     0.7495E-4   1.007     0.1526E-3   1.010   
  1.456     0.7520E-4   1.007     0.1533E-3   1.010   
  1.471     0.7545E-4   1.007     0.1540E-3   1.010   
  1.486     0.7570E-4   1.007     0.1547E-3   1.010   
  1.502     0.7596E-4   1.007     0.1554E-3   1.010   
  1.517     0.7621E-4   1.007     0.1561E-3   1.010   
  1.532     0.7647E-4   1.007     0.1568E-3   1.010   
  1.547     0.7673E-4   1.007     0.1575E-3   1.010   
  1.562     0.7699E-4   1.007     0.1583E-3   1.010   
  1.577     0.7725E-4   1.007     0.1590E-3   1.010   
  1.592     0.7751E-4   1.007     0.1597E-3   1.010   
  1.607     0.7777E-4   1.007     0.1605E-3   1.010   
  1.622     0.7804E-4   1.007     0.1612E-3   1.010   
  1.637     0.7831E-4   1.007     0.1620E-3   1.011   
  1.652     0.7857E-4   1.007     0.1627E-3   1.011   
  1.667     0.7884E-4   1.007     0.1635E-3   1.011   
  1.682     0.7911E-4   1.007     0.1642E-3   1.011   
  1.697     0.7939E-4   1.007     0.1650E-3   1.011   
  1.712     0.7966E-4   1.007     0.1658E-3   1.011   
  1.727     0.7994E-4   1.007     0.1666E-3   1.011   
  1.742     0.8021E-4   1.007     0.1674E-3   1.011   
  1.757     0.8049E-4   1.007     0.1682E-3   1.011   
  1.772     0.8077E-4   1.007     0.1690E-3   1.011   
  1.787     0.8105E-4   1.007     0.1698E-3   1.011   
  1.802     0.8133E-4   1.007     0.1706E-3   1.011   
  1.817     0.8162E-4   1.007     0.1714E-3   1.011   
  1.832     0.8190E-4   1.007     0.1722E-3   1.011   
  1.847     0.8219E-4   1.007     0.1730E-3   1.011   
  1.862     0.8248E-4   1.007     0.1739E-3   1.011   
  1.877     0.8277E-4   1.007     0.1747E-3   1.011   
  1.892     0.8306E-4   1.007     0.1756E-3   1.011   
  1.907     0.8336E-4   1.007     0.1764E-3   1.011   
  1.922     0.8365E-4   1.007     0.1773E-3   1.011   
  1.937     0.8395E-4   1.007     0.1782E-3   1.011   
  1.952     0.8425E-4   1.007     0.1790E-3   1.011   
  1.967     0.8455E-4   1.007     0.1799E-3   1.011   
  1.982     0.8485E-4   1.007     0.1808E-3   1.011   
  1.997     0.8515E-4   1.007     0.1817E-3   1.011   
  2.012     0.8546E-4   1.007     0.1826E-3   1.011   
  2.027     0.8576E-4   1.007     0.1835E-3   1.011   
  2.042     0.8607E-4   1.007     0.1844E-3   1.011   
  2.057     0.8638E-4   1.008     0.1853E-3   1.011   
  2.072     0.8669E-4   1.008     0.1862E-3   1.011   
  2.087     0.8701E-4   1.008     0.1872E-3   1.011   
  2.102     0.8732E-4   1.008     0.1881E-3   1.011   
  2.117     0.8764E-4   1.008     0.1891E-3   1.011   
  2.132     0.8796E-4   1.008     0.1900E-3   1.011   
  2.147     0.8828E-4   1.008     0.1910E-3   1.011   
  2.162     0.8860E-4   1.008     0.1920E-3   1.011   
  2.177     0.8893E-4   1.008     0.1929E-3   1.011   
  2.192     0.8925E-4   1.008     0.1939E-3   1.012   
  2.207     0.8958E-4   1.008     0.1949E-3   1.012   
  2.222     0.8991E-4   1.008     0.1959E-3   1.012   
  2.237     0.9024E-4   1.008     0.1969E-3   1.012   
  2.252     0.9058E-4   1.008     0.1979E-3   1.012   
  2.267     0.9091E-4   1.008     0.1990E-3   1.012   
  2.282     0.9125E-4   1.008     0.2000E-3   1.012   
  2.297     0.9159E-4   1.008     0.2010E-3   1.012   
  2.312     0.9193E-4   1.008     0.2021E-3   1.012   
  2.327     0.9228E-4   1.008     0.2031E-3   1.012   
  2.342     0.9262E-4   1.008     0.2042E-3   1.012   
  2.357     0.9297E-4   1.008     0.2053E-3   1.012   
  2.372     0.9332E-4   1.008     0.2063E-3   1.012   
  2.387     0.9367E-4   1.008     0.2074E-3   1.012   
  2.402     0.9402E-4   1.008     0.2085E-3   1.012   
  2.417     0.9438E-4   1.008     0.2096E-3   1.012   
  2.432     0.9474E-4   1.008     0.2108E-3   1.012   
  2.447     0.9510E-4   1.008     0.2119E-3   1.012   
  2.462     0.9546E-4   1.008     0.2130E-3   1.012   
  2.477     0.9582E-4   1.008     0.2142E-3   1.012   
  2.492     0.9619E-4   1.008     0.2153E-3   1.012   
  2.508     0.9656E-4   1.008     0.2165E-3   1.012   
  2.523     0.9693E-4   1.008     0.2176E-3   1.012   
  2.538     0.9730E-4   1.008     0.2188E-3   1.012   
  2.553     0.9768E-4   1.008     0.2200E-3   1.012   
  2.568     0.9806E-4   1.008     0.2212E-3   1.012   
  2.583     0.9844E-4   1.008     0.2224E-3   1.012   
  2.598     0.9882E-4   1.008     0.2236E-3   1.012   
  2.613     0.9920E-4   1.008     0.2249E-3   1.012   
  2.628     0.9959E-4   1.008     0.2261E-3   1.012   
  2.643     0.9998E-4   1.008     0.2274E-3   1.012   
  2.658     0.1004E-3   1.008     0.2286E-3   1.012   
  2.673     0.1008E-3   1.008     0.2299E-3   1.013   
  2.688     0.1012E-3   1.008     0.2312E-3   1.013   
  2.703     0.1016E-3   1.008     0.2325E-3   1.013   
  2.718     0.1020E-3   1.008     0.2338E-3   1.013   
  2.733     0.1024E-3   1.008     0.2351E-3   1.013   
  2.748     0.1028E-3   1.008     0.2364E-3   1.013   
  2.763     0.1032E-3   1.008     0.2378E-3   1.013   
  2.778     0.1036E-3   1.008     0.2391E-3   1.013   
  2.793     0.1040E-3   1.008     0.2405E-3   1.013   
  2.808     0.1044E-3   1.008     0.2418E-3   1.013   
  2.823     0.1048E-3   1.008     0.2432E-3   1.013   
  2.838     0.1053E-3   1.008     0.2446E-3   1.013   
  2.853     0.1057E-3   1.008     0.2460E-3   1.013   
  2.868     0.1061E-3   1.008     0.2474E-3   1.013   
  2.883     0.1065E-3   1.008     0.2489E-3   1.013   
  2.898     0.1070E-3   1.008     0.2503E-3   1.013   
  2.913     0.1074E-3   1.008     0.2518E-3   1.013   
  2.928     0.1078E-3   1.008     0.2533E-3   1.013   
  2.943     0.1083E-3   1.008     0.2547E-3   1.013   
  2.958     0.1087E-3   1.008     0.2562E-3   1.013   
  2.973     0.1092E-3   1.008     0.2577E-3   1.013   
  2.988     0.1096E-3   1.008     0.2593E-3   1.013   
  3.003     0.1101E-3   1.008     0.2608E-3   1.013   
  3.018     0.1105E-3   1.008     0.2624E-3   1.013   
  3.033     0.1110E-3   1.008     0.2639E-3   1.013   
  3.048     0.1114E-3   1.008     0.2655E-3   1.013   
  3.063     0.1119E-3   1.009     0.2671E-3   1.013   
  3.078     0.1124E-3   1.009     0.2687E-3   1.014   
  3.093     0.1128E-3   1.009     0.2703E-3   1.014   
  3.108     0.1133E-3   1.009     0.2720E-3   1.014   
  3.123     0.1138E-3   1.009     0.2736E-3   1.014   
  3.138     0.1143E-3   1.009     0.2753E-3   1.014   
  3.153     0.1148E-3   1.009     0.2770E-3   1.014   
  3.168     0.1152E-3   1.009     0.2787E-3   1.014   
  3.183     0.1157E-3   1.009     0.2804E-3   1.014   
  3.198     0.1162E-3   1.009     0.2821E-3   1.014   
  3.213     0.1167E-3   1.009     0.2839E-3   1.014   
  3.228     0.1172E-3   1.009     0.2856E-3   1.014   
  3.243     0.1177E-3   1.009     0.2874E-3   1.014   
  3.258     0.1182E-3   1.009     0.2892E-3   1.014   
  3.273     0.1187E-3   1.009     0.2910E-3   1.014   
  3.288     0.1192E-3   1.009     0.2928E-3   1.014   
  3.303     0.1197E-3   1.009     0.2947E-3   1.014   
  3.318     0.1203E-3   1.009     0.2965E-3   1.014   
  3.333     0.1208E-3   1.009     0.2984E-3   1.014   
  3.348     0.1213E-3   1.009     0.3003E-3   1.014   
  3.363     0.1218E-3   1.009     0.3022E-3   1.014   
  3.378     0.1224E-3   1.009     0.3042E-3   1.014   
  3.393     0.1229E-3   1.009     0.3061E-3   1.014   
  3.408     0.1234E-3   1.009     0.3081E-3   1.014   
  3.423     0.1240E-3   1.009     0.3101E-3   1.015   
  3.438     0.1245E-3   1.009     0.3121E-3   1.015   
  3.453     0.1251E-3   1.009     0.3142E-3   1.015   
  3.468     0.1256E-3   1.009     0.3162E-3   1.015   
  3.483     0.1262E-3   1.009     0.3183E-3   1.015   
  3.498     0.1268E-3   1.009     0.3204E-3   1.015   
  3.514     0.1273E-3   1.009     0.3225E-3   1.015   
  3.529     0.1279E-3   1.009     0.3246E-3   1.015   
  3.544     0.1285E-3   1.009     0.3268E-3   1.015   
  3.559     0.1291E-3   1.009     0.3290E-3   1.015   
  3.574     0.1296E-3   1.009     0.3312E-3   1.015   
  3.589     0.1302E-3   1.009     0.3334E-3   1.015   
  3.604     0.1308E-3   1.009     0.3357E-3   1.015   
  3.619     0.1314E-3   1.009     0.3379E-3   1.015   
  3.634     0.1320E-3   1.009     0.3402E-3   1.015   
  3.649     0.1326E-3   1.009     0.3425E-3   1.015   
  3.664     0.1332E-3   1.009     0.3449E-3   1.015   
  3.679     0.1338E-3   1.009     0.3472E-3   1.015   
  3.694     0.1344E-3   1.009     0.3496E-3   1.015   
  3.709     0.1351E-3   1.009     0.3520E-3   1.015   
  3.724     0.1357E-3   1.009     0.3545E-3   1.016   
  3.739     0.1363E-3   1.009     0.3569E-3   1.016   
  3.754     0.1370E-3   1.009     0.3594E-3   1.016   
  3.769     0.1376E-3   1.009     0.3620E-3   1.016   
  3.784     0.1382E-3   1.009     0.3645E-3   1.016   
  3.799     0.1389E-3   1.009     0.3671E-3   1.016   
  3.814     0.1395E-3   1.009     0.3697E-3   1.016   
  3.829     0.1402E-3   1.009     0.3723E-3   1.016   
  3.844     0.1409E-3   1.009     0.3749E-3   1.016   
  3.859     0.1415E-3   1.010     0.3776E-3   1.016   
  3.874     0.1422E-3   1.010     0.3803E-3   1.016   
  3.889     0.1429E-3   1.010     0.3831E-3   1.016   
  3.904     0.1436E-3   1.010     0.3858E-3   1.016   
  3.919     0.1443E-3   1.010     0.3887E-3   1.016   
  3.934     0.1449E-3   1.010     0.3915E-3   1.016   
  3.949     0.1456E-3   1.010     0.3943E-3   1.016   
  3.964     0.1463E-3   1.010     0.3972E-3   1.016   
  3.979     0.1471E-3   1.010     0.4002E-3   1.016   
  3.994     0.1478E-3   1.010     0.4031E-3   1.017   
  4.009     0.1485E-3   1.010     0.4061E-3   1.017   
  4.024     0.1492E-3   1.010     0.4091E-3   1.017   
  4.039     0.1499E-3   1.010     0.4122E-3   1.017   
  4.054     0.1507E-3   1.010     0.4153E-3   1.017   
  4.069     0.1514E-3   1.010     0.4184E-3   1.017   
  4.084     0.1522E-3   1.010     0.4216E-3   1.017   
  4.099     0.1529E-3   1.010     0.4248E-3   1.017   
  4.114     0.1537E-3   1.010     0.4280E-3   1.017   
  4.129     0.1545E-3   1.010     0.4313E-3   1.017   
  4.144     0.1552E-3   1.010     0.4346E-3   1.017   
  4.159     0.1560E-3   1.010     0.4380E-3   1.017   
  4.174     0.1568E-3   1.010     0.4414E-3   1.017   
  4.189     0.1576E-3   1.010     0.4448E-3   1.017   
  4.204     0.1584E-3   1.010     0.4483E-3   1.017   
  4.219     0.1592E-3   1.010     0.4518E-3   1.017   
  4.234     0.1600E-3   1.010     0.4554E-3   1.018   
  4.249     0.1608E-3   1.010     0.4589E-3   1.018   
  4.264     0.1616E-3   1.010     0.4626E-3   1.018   
  4.279     0.1624E-3   1.010     0.4663E-3   1.018   
  4.294     0.1633E-3   1.010     0.4700E-3   1.018   
  4.309     0.1641E-3   1.010     0.4738E-3   1.018   
  4.324     0.1650E-3   1.010     0.4776E-3   1.018   
  4.339     0.1658E-3   1.010     0.4815E-3   1.018   
  4.354     0.1667E-3   1.010     0.4854E-3   1.018   
  4.369     0.1676E-3   1.010     0.4893E-3   1.018   
  4.384     0.1684E-3   1.010     0.4933E-3   1.018   
  4.399     0.1693E-3   1.010     0.4974E-3   1.018   
  4.414     0.1702E-3   1.010     0.5015E-3   1.018   
  4.429     0.1711E-3   1.010     0.5057E-3   1.018   
  4.444     0.1720E-3   1.010     0.5099E-3   1.019   
  4.459     0.1729E-3   1.010     0.5142E-3   1.019   
  4.474     0.1738E-3   1.010     0.5185E-3   1.019   
  4.489     0.1748E-3   1.010     0.5229E-3   1.019   
  4.505     0.1757E-3   1.011     0.5273E-3   1.019   
  4.520     0.1766E-3   1.011     0.5318E-3   1.019   
  4.535     0.1776E-3   1.011     0.5363E-3   1.019   
  4.550     0.1786E-3   1.011     0.5409E-3   1.019   
  4.565     0.1795E-3   1.011     0.5456E-3   1.019   
  4.580     0.1805E-3   1.011     0.5503E-3   1.019   
  4.595     0.1815E-3   1.011     0.5551E-3   1.019   
  4.610     0.1825E-3   1.011     0.5600E-3   1.019   
  4.625     0.1835E-3   1.011     0.5649E-3   1.020   
  4.640     0.1845E-3   1.011     0.5699E-3   1.020   
  4.655     0.1855E-3   1.011     0.5749E-3   1.020   
  4.670     0.1865E-3   1.011     0.5800E-3   1.020   
  4.685     0.1876E-3   1.011     0.5852E-3   1.020   
  4.700     0.1886E-3   1.011     0.5905E-3   1.020   
  4.715     0.1897E-3   1.011     0.5958E-3   1.020   
  4.730     0.1907E-3   1.011     0.6012E-3   1.020   
  4.745     0.1918E-3   1.011     0.6067E-3   1.020   
  4.760     0.1929E-3   1.011     0.6122E-3   1.020   
  4.775     0.1940E-3   1.011     0.6178E-3   1.020   
  4.790     0.1951E-3   1.011     0.6235E-3   1.021   
  4.805     0.1962E-3   1.011     0.6293E-3   1.021   
  4.820     0.1973E-3   1.011     0.6352E-3   1.021   
  4.835     0.1985E-3   1.011     0.6411E-3   1.021   
  4.850     0.1996E-3   1.011     0.6472E-3   1.021   
  4.865     0.2008E-3   1.011     0.6533E-3   1.021   
  4.880     0.2019E-3   1.011     0.6595E-3   1.021   
  4.895     0.2031E-3   1.011     0.6658E-3   1.021   
  4.910     0.2043E-3   1.011     0.6722E-3   1.021   
  4.925     0.2055E-3   1.011     0.6786E-3   1.021   
  4.940     0.2067E-3   1.011     0.6852E-3   1.021   
  4.955     0.2079E-3   1.011     0.6919E-3   1.022   
  4.970     0.2091E-3   1.011     0.6987E-3   1.022   
  4.985     0.2104E-3   1.011     0.7055E-3   1.022   
  5.000     0.2116E-3   1.011     0.7125E-3   1.022   
  5.015     0.2129E-3   1.012     0.7196E-3   1.022   
  5.030     0.2142E-3   1.012     0.7267E-3   1.022   
  5.045     0.2155E-3   1.012     0.7340E-3   1.022   
  5.060     0.2168E-3   1.012     0.7414E-3   1.022   
  5.075     0.2181E-3   1.012     0.7489E-3   1.022   
  5.090     0.2194E-3   1.012     0.7566E-3   1.023   
  5.105     0.2207E-3   1.012     0.7643E-3   1.023   
  5.120     0.2221E-3   1.012     0.7722E-3   1.023   
  5.135     0.2235E-3   1.012     0.7802E-3   1.023   
  5.150     0.2248E-3   1.012     0.7883E-3   1.023   
  5.165     0.2262E-3   1.012     0.7965E-3   1.023   
  5.180     0.2276E-3   1.012     0.8049E-3   1.023   
  5.195     0.2291E-3   1.012     0.8134E-3   1.023   
  5.210     0.2305E-3   1.012     0.8220E-3   1.024   
  5.225     0.2319E-3   1.012     0.8308E-3   1.024   
  5.240     0.2334E-3   1.012     0.8397E-3   1.024   
  5.255     0.2349E-3   1.012     0.8488E-3   1.024   
  5.270     0.2364E-3   1.012     0.8580E-3   1.024   
  5.285     0.2379E-3   1.012     0.8674E-3   1.024   
  5.300     0.2394E-3   1.012     0.8769E-3   1.024   
  5.315     0.2409E-3   1.012     0.8866E-3   1.024   
  5.330     0.2425E-3   1.012     0.8964E-3   1.025   
  5.345     0.2440E-3   1.012     0.9065E-3   1.025   
  5.360     0.2456E-3   1.012     0.9166E-3   1.025   
  5.375     0.2472E-3   1.012     0.9270E-3   1.025   
  5.390     0.2488E-3   1.012     0.9375E-3   1.025   
  5.405     0.2505E-3   1.012     0.9482E-3   1.025   
  5.420     0.2521E-3   1.012     0.9591E-3   1.025   
  5.435     0.2538E-3   1.012     0.9702E-3   1.026   
  5.450     0.2555E-3   1.013     0.9815E-3   1.026   
  5.465     0.2572E-3   1.013     0.9929E-3   1.026   
  5.480     0.2589E-3   1.013     0.1005E-2   1.026   
  5.495     0.2606E-3   1.013     0.1017E-2   1.026   
  5.511     0.2624E-3   1.013     0.1029E-2   1.026   
  5.526     0.2642E-3   1.013     0.1041E-2   1.026   
  5.541     0.2660E-3   1.013     0.1053E-2   1.027   
  5.556     0.2678E-3   1.013     0.1066E-2   1.027   
  5.571     0.2696E-3   1.013     0.1079E-2   1.027   
  5.586     0.2715E-3   1.013     0.1093E-2   1.027   
  5.601     0.2733E-3   1.013     0.1106E-2   1.027   
  5.616     0.2752E-3   1.013     0.1120E-2   1.027   
  5.631     0.2771E-3   1.013     0.1134E-2   1.028   
  5.646     0.2791E-3   1.013     0.1148E-2   1.028   
  5.661     0.2810E-3   1.013     0.1163E-2   1.028   
  5.676     0.2830E-3   1.013     0.1177E-2   1.028   
  5.691     0.2850E-3   1.013     0.1193E-2   1.028   
  5.706     0.2870E-3   1.013     0.1208E-2   1.028   
  5.721     0.2891E-3   1.013     0.1224E-2   1.029   
  5.736     0.2912E-3   1.013     0.1240E-2   1.029   
  5.751     0.2933E-3   1.013     0.1256E-2   1.029   
  5.766     0.2954E-3   1.013     0.1273E-2   1.029   
  5.781     0.2975E-3   1.013     0.1290E-2   1.029   
  5.796     0.2997E-3   1.013     0.1307E-2   1.030   
  5.811     0.3019E-3   1.014     0.1325E-2   1.030   
  5.826     0.3041E-3   1.014     0.1343E-2   1.030   
  5.841     0.3063E-3   1.014     0.1361E-2   1.030   
  5.856     0.3086E-3   1.014     0.1380E-2   1.030   
  5.871     0.3109E-3   1.014     0.1399E-2   1.031   
  5.886     0.3132E-3   1.014     0.1419E-2   1.031   
  5.901     0.3156E-3   1.014     0.1439E-2   1.031   
  5.916     0.3180E-3   1.014     0.1459E-2   1.031   
  5.931     0.3204E-3   1.014     0.1480E-2   1.031   
  5.946     0.3228E-3   1.014     0.1502E-2   1.032   
  5.961     0.3253E-3   1.014     0.1523E-2   1.032   
  5.976     0.3278E-3   1.014     0.1546E-2   1.032   
  5.991     0.3303E-3   1.014     0.1568E-2   1.032   
  6.006     0.3328E-3   1.014     0.1592E-2   1.033   
  6.021     0.3354E-3   1.014     0.1616E-2   1.033   
  6.036     0.3380E-3   1.014     0.1640E-2   1.033   
  6.051     0.3407E-3   1.014     0.1665E-2   1.033   
  6.066     0.3434E-3   1.014     0.1690E-2   1.034   
  6.081     0.3461E-3   1.014     0.1717E-2   1.034   
  6.096     0.3489E-3   1.014     0.1743E-2   1.034   
  6.111     0.3517E-3   1.014     0.1771E-2   1.034   
  6.126     0.3545E-3   1.015     0.1799E-2   1.035   
  6.141     0.3573E-3   1.015     0.1827E-2   1.035   
  6.156     0.3602E-3   1.015     0.1857E-2   1.035   
  6.171     0.3632E-3   1.015     0.1887E-2   1.035   
  6.186     0.3661E-3   1.015     0.1918E-2   1.036   
  6.201     0.3692E-3   1.015     0.1949E-2   1.036   
  6.216     0.3722E-3   1.015     0.1981E-2   1.036   
  6.231     0.3753E-3   1.015     0.2015E-2   1.037   
  6.246     0.3784E-3   1.015     0.2049E-2   1.037   
  6.261     0.3816E-3   1.015     0.2084E-2   1.037   
  6.276     0.3848E-3   1.015     0.2119E-2   1.038   
  6.291     0.3881E-3   1.015     0.2156E-2   1.038   
  6.306     0.3914E-3   1.015     0.2194E-2   1.038   
  6.321     0.3947E-3   1.015     0.2233E-2   1.038   
  6.336     0.3981E-3   1.015     0.2272E-2   1.039   
  6.351     0.4016E-3   1.015     0.2313E-2   1.039   
  6.366     0.4051E-3   1.015     0.2355E-2   1.040   
  6.381     0.4086E-3   1.016     0.2398E-2   1.040   
  6.396     0.4122E-3   1.016     0.2442E-2   1.040   
  6.411     0.4158E-3   1.016     0.2488E-2   1.041   
  6.426     0.4195E-3   1.016     0.2535E-2   1.041   
  6.441     0.4232E-3   1.016     0.2583E-2   1.041   
  6.456     0.4270E-3   1.016     0.2632E-2   1.042   
  6.471     0.4309E-3   1.016     0.2683E-2   1.042   
  6.486     0.4348E-3   1.016     0.2736E-2   1.043   
  6.502     0.4388E-3   1.016     0.2790E-2   1.043   
  6.517     0.4428E-3   1.016     0.2846E-2   1.043   
  6.532     0.4468E-3   1.016     0.2903E-2   1.044   
  6.547     0.4510E-3   1.016     0.2962E-2   1.044   
  6.562     0.4552E-3   1.016     0.3023E-2   1.045   
  6.577     0.4594E-3   1.016     0.3086E-2   1.045   
  6.592     0.4638E-3   1.016     0.3151E-2   1.046   
  6.607     0.4682E-3   1.017     0.3218E-2   1.046   
  6.622     0.4726E-3   1.017     0.3287E-2   1.047   
  6.637     0.4771E-3   1.017     0.3358E-2   1.047   
  6.652     0.4817E-3   1.017     0.3432E-2   1.048   
  6.667     0.4864E-3   1.017     0.3508E-2   1.048   
  6.682     0.4911E-3   1.017     0.3587E-2   1.049   
  6.697     0.4959E-3   1.017     0.3668E-2   1.049   
  6.712     0.5008E-3   1.017     0.3752E-2   1.050   
  6.727     0.5058E-3   1.017     0.3839E-2   1.050   
  6.742     0.5108E-3   1.017     0.3929E-2   1.051   
  6.757     0.5159E-3   1.017     0.4023E-2   1.051   
  6.772     0.5212E-3   1.017     0.4120E-2   1.052   
  6.787     0.5264E-3   1.017     0.4220E-2   1.053   
  6.802     0.5318E-3   1.017     0.4324E-2   1.053   
  6.817     0.5373E-3   1.018     0.4432E-2   1.054   
  6.832     0.5428E-3   1.018     0.4544E-2   1.055   
  6.847     0.5485E-3   1.018     0.4660E-2   1.055   
  6.862     0.5542E-3   1.018     0.4781E-2   1.056   
  6.877     0.5600E-3   1.018     0.4907E-2   1.057   
  6.892     0.5660E-3   1.018     0.5038E-2   1.057   
  6.907     0.5720E-3   1.018     0.5174E-2   1.058   
  6.922     0.5781E-3   1.018     0.5315E-2   1.059   
  6.937     0.5844E-3   1.018     0.5463E-2   1.060   
  6.952     0.5907E-3   1.018     0.5616E-2   1.061   
  6.967     0.5972E-3   1.018     0.5777E-2   1.061   
  6.982     0.6038E-3   1.018     0.5944E-2   1.062   
  6.997     0.6105E-3   1.019     0.6119E-2   1.063   
  7.012     0.6173E-3   1.019     0.6301E-2   1.064   
  7.027     0.6242E-3   1.019     0.6492E-2   1.065   
  7.042     0.6313E-3   1.019     0.6691E-2   1.066   
  7.057     0.6385E-3   1.019     0.6900E-2   1.067   
  7.072     0.6458E-3   1.019     0.7119E-2   1.068   
  7.087     0.6532E-3   1.019     0.7348E-2   1.069   
  7.102     0.6608E-3   1.019     0.7589E-2   1.070   
  7.117     0.6686E-3   1.019     0.7841E-2   1.071   
  7.132     0.6764E-3   1.019     0.8106E-2   1.072   
  7.147     0.6845E-3   1.020     0.8385E-2   1.074   
  7.162     0.6926E-3   1.020     0.8679E-2   1.075   
  7.177     0.7010E-3   1.020     0.8988E-2   1.076   
  7.192     0.7095E-3   1.020     0.9314E-2   1.078   
  7.207     0.7181E-3   1.020     0.9659E-2   1.079   
  7.222     0.7270E-3   1.020     0.1002E-1   1.080   
  7.237     0.7360E-3   1.020     0.1041E-1   1.082   
  7.252     0.7452E-3   1.020     0.1081E-1   1.083   
  7.267     0.7546E-3   1.020     0.1124E-1   1.085   
  7.282     0.7641E-3   1.021     0.1170E-1   1.087   
  7.297     0.7739E-3   1.021     0.1219E-1   1.088   
  7.312     0.7839E-3   1.021     0.1270E-1   1.090   
  7.327     0.7940E-3   1.021     0.1325E-1   1.092   
  7.342     0.8044E-3   1.021     0.1384E-1   1.094   
  7.357     0.8150E-3   1.021     0.1447E-1   1.096   
  7.372     0.8258E-3   1.021     0.1513E-1   1.098   
  7.387     0.8369E-3   1.021     0.1585E-1   1.100   
  7.402     0.8482E-3   1.021     0.1662E-1   1.103   
  7.417     0.8597E-3   1.022     0.1744E-1   1.105   
  7.432     0.8715E-3   1.022     0.1833E-1   1.108   
  7.447     0.8836E-3   1.022     0.1928E-1   1.110   
  7.462     0.8959E-3   1.022     0.2031E-1   1.113   
  7.477     0.9085E-3   1.022     0.2143E-1   1.116   
  7.492     0.9214E-3   1.022     0.2264E-1   1.119   
  7.508     0.9346E-3   1.022     0.2395E-1   1.122   
  7.523     0.9481E-3   1.023     0.2538E-1   1.126   
  7.538     0.9619E-3   1.023     0.2694E-1   1.129   
  7.553     0.9760E-3   1.023     0.2864E-1   1.133   
  7.568     0.9905E-3   1.023     0.3051E-1   1.137   
  7.583     0.1005E-2   1.023     0.3257E-1   1.141   
  7.598     0.1020E-2   1.023     0.3483E-1   1.146   
  7.613     0.1036E-2   1.023     0.3734E-1   1.151   
  7.628     0.1052E-2   1.024     0.4012E-1   1.156   
  7.643     0.1068E-2   1.024     0.4321E-1   1.161   
  7.658     0.1085E-2   1.024     0.4667E-1   1.167   
  7.673     0.1102E-2   1.024     0.5055E-1   1.173   
  7.688     0.1120E-2   1.024     0.5491E-1   1.180   
  7.703     0.1138E-2   1.024     0.5985E-1   1.187   
  7.718     0.1156E-2   1.025     0.6546E-1   1.194   
  7.733     0.1175E-2   1.025     0.7185E-1   1.202   
  7.748     0.1195E-2   1.025     0.7918E-1   1.211   
  7.763     0.1215E-2   1.025     0.8764E-1   1.220   
  7.778     0.1235E-2   1.025     0.9743E-1   1.230   
  7.793     0.1256E-2   1.025     0.1088      1.241   
  7.808     0.1278E-2   1.026     0.1222      1.252   
  7.823     0.1300E-2   1.026     0.1380      1.263   
  7.838     0.1323E-2   1.026     0.1566      1.275   
  7.853     0.1347E-2   1.026     0.1787      1.287   
  7.868     0.1371E-2   1.026     0.2052      1.298   
  7.883     0.1396E-2   1.027     0.2367      1.308   
  7.898     0.1422E-2   1.027     0.2742      1.315   
  7.913     0.1448E-2   1.027     0.3185      1.318   
  7.928     0.1476E-2   1.027     0.3698      1.314   
  7.943     0.1504E-2   1.028     0.4274      1.298   
  7.958     0.1533E-2   1.028     0.4887      1.267   
  7.973     0.1563E-2   1.028     0.5482      1.217   
  7.988     0.1593E-2   1.028     0.5976      1.147   
  8.003     0.1625E-2   1.028     0.6274      1.060   
  8.018     0.1658E-2   1.029     0.6308     0.9658   
  8.033     0.1692E-2   1.029     0.6067     0.8761   
  8.048     0.1727E-2   1.029     0.5610     0.8013   
  8.063     0.1763E-2   1.029     0.5031     0.7466   
  8.078     0.1801E-2   1.030     0.4416     0.7115   
  8.093     0.1839E-2   1.030     0.3828     0.6927   
  8.108     0.1880E-2   1.030     0.3299     0.6860   
  8.123     0.1921E-2   1.031     0.2840     0.6874   
  8.138     0.1964E-2   1.031     0.2449     0.6939   
  8.153     0.2008E-2   1.031     0.2121     0.7034   
  8.168     0.2055E-2   1.031     0.1846     0.7146   
  8.183     0.2102E-2   1.032     0.1615     0.7263   
  8.198     0.2152E-2   1.032     0.1421     0.7382   
  8.213     0.2204E-2   1.032     0.1257     0.7498   
  8.228     0.2257E-2   1.033     0.1118     0.7609   
  8.243     0.2313E-2   1.033     0.9999E-1  0.7715   
  8.258     0.2371E-2   1.033     0.8984E-1  0.7815   
  8.273     0.2431E-2   1.034     0.8110E-1  0.7908   
  8.288     0.2494E-2   1.034     0.7352E-1  0.7996   
  8.303     0.2559E-2   1.035     0.6692E-1  0.8078   
  8.318     0.2627E-2   1.035     0.6115E-1  0.8155   
  8.333     0.2698E-2   1.035     0.5607E-1  0.8226   
  8.348     0.2772E-2   1.036     0.5158E-1  0.8293   
  8.363     0.2850E-2   1.036     0.4759E-1  0.8356   
  8.378     0.2931E-2   1.037     0.4405E-1  0.8415   
  8.393     0.3015E-2   1.037     0.4087E-1  0.8470   
  8.408     0.3104E-2   1.037     0.3803E-1  0.8522   
  8.423     0.3196E-2   1.038     0.3546E-1  0.8571   
  8.438     0.3294E-2   1.038     0.3314E-1  0.8617   
  8.453     0.3395E-2   1.039     0.3104E-1  0.8660   
  8.468     0.3503E-2   1.039     0.2914E-1  0.8701   
  8.483     0.3615E-2   1.040     0.2740E-1  0.8740   
  8.498     0.3733E-2   1.040     0.2581E-1  0.8776   
  8.514     0.3858E-2   1.041     0.2435E-1  0.8811   
  8.529     0.3989E-2   1.042     0.2302E-1  0.8844   
  8.544     0.4128E-2   1.042     0.2179E-1  0.8875   
  8.559     0.4274E-2   1.043     0.2066E-1  0.8905   
  8.574     0.4428E-2   1.043     0.1961E-1  0.8933   
  8.589     0.4592E-2   1.044     0.1864E-1  0.8960   
  8.604     0.4765E-2   1.045     0.1774E-1  0.8986   
  8.619     0.4949E-2   1.045     0.1691E-1  0.9011   
  8.634     0.5144E-2   1.046     0.1613E-1  0.9034   
  8.649     0.5351E-2   1.047     0.1541E-1  0.9057   
  8.664     0.5572E-2   1.048     0.1473E-1  0.9078   
  8.679     0.5808E-2   1.049     0.1410E-1  0.9099   
  8.694     0.6059E-2   1.049     0.1351E-1  0.9119   
  8.709     0.6328E-2   1.050     0.1295E-1  0.9138   
  8.724     0.6616E-2   1.051     0.1243E-1  0.9156   
  8.739     0.6925E-2   1.052     0.1195E-1  0.9174   
  8.754     0.7257E-2   1.053     0.1149E-1  0.9191   
  8.769     0.7615E-2   1.054     0.1105E-1  0.9207   
  8.784     0.8001E-2   1.055     0.1065E-1  0.9223   
  8.799     0.8418E-2   1.056     0.1026E-1  0.9238   
    8.8138     0.0089     1.0577     0.0099     0.9253
    8.8288     0.0094     1.0589     0.0096     0.9267
    8.8438     0.0099     1.0603     0.0092     0.9280
    8.8589     0.0105     1.0617     0.0089     0.9294
  8.874     0.1111E-1   1.063     0.8630E-2  0.9306   
  8.889     0.1181E-1   1.065     0.8354E-2  0.9319   
  8.904     0.1257E-1   1.066     0.8091E-2  0.9331   
  8.919     0.1342E-1   1.068     0.7842E-2  0.9343   
  8.934     0.1435E-1   1.070     0.7606E-2  0.9354   
  8.949     0.1539E-1   1.072     0.7381E-2  0.9365   
  8.964     0.1655E-1   1.074     0.7167E-2  0.9376   
  8.979     0.1784E-1   1.076     0.6963E-2  0.9386   
  8.994     0.1929E-1   1.079     0.6769E-2  0.9396   
  9.009     0.2092E-1   1.081     0.6584E-2  0.9406   
  9.024     0.2277E-1   1.084     0.6408E-2  0.9415   
  9.039     0.2487E-1   1.087     0.6241E-2  0.9425   
  9.054     0.2727E-1   1.090     0.6081E-2  0.9434   
  9.069     0.3003E-1   1.093     0.5929E-2  0.9443   
  9.084     0.3321E-1   1.096     0.5784E-2  0.9451   
  9.099     0.3691E-1   1.100     0.5645E-2  0.9460   
  9.114     0.4122E-1   1.104     0.5514E-2  0.9468   
  9.129     0.4628E-1   1.108     0.5388E-2  0.9476   
  9.144     0.5226E-1   1.112     0.5268E-2  0.9484   
  9.159     0.5934E-1   1.117     0.5155E-2  0.9492   
  9.174     0.6777E-1   1.121     0.5046E-2  0.9499   
  9.189     0.7783E-1   1.125     0.4943E-2  0.9507   
  9.204     0.8981E-1   1.128     0.4846E-2  0.9514   
  9.219     0.1040      1.130     0.4753E-2  0.9521   
  9.234     0.1207      1.130     0.4665E-2  0.9528   
  9.249     0.1397      1.127     0.4582E-2  0.9535   
  9.264     0.1606      1.120     0.4504E-2  0.9541   
  9.279     0.1819      1.106     0.4431E-2  0.9548   
  9.294     0.2014      1.086     0.4362E-2  0.9554   
  9.309     0.2157      1.058     0.4298E-2  0.9561   
  9.324     0.2218      1.026     0.4238E-2  0.9567   
  9.339     0.2183     0.9941     0.4183E-2  0.9573   
  9.354     0.2059     0.9654     0.4133E-2  0.9580   
  9.369     0.1876     0.9429     0.4088E-2  0.9586   
  9.384     0.1666     0.9276     0.4048E-2  0.9592   
  9.399     0.1455     0.9186     0.4012E-2  0.9597   
  9.414     0.1260     0.9146     0.3983E-2  0.9603   
  9.429     0.1088     0.9141     0.3959E-2  0.9609   
  9.444     0.9414E-1  0.9159     0.3940E-2  0.9615   
  9.459     0.8172E-1  0.9191     0.3929E-2  0.9621   
  9.474     0.7132E-1  0.9231     0.3924E-2  0.9626   
  9.489     0.6263E-1  0.9275     0.3926E-2  0.9632   
  9.505     0.5536E-1  0.9320     0.3937E-2  0.9638   
  9.520     0.4926E-1  0.9364     0.3956E-2  0.9644   
  9.535     0.4412E-1  0.9408     0.3986E-2  0.9649   
  9.550     0.3978E-1  0.9450     0.4026E-2  0.9655   
  9.565     0.3610E-1  0.9490     0.4080E-2  0.9661   
  9.580     0.3296E-1  0.9528     0.4147E-2  0.9667   
  9.595     0.3028E-1  0.9564     0.4231E-2  0.9672   
  9.610     0.2799E-1  0.9599     0.4333E-2  0.9678   
  9.625     0.2602E-1  0.9632     0.4458E-2  0.9684   
  9.640     0.2433E-1  0.9663     0.4609E-2  0.9690   
  9.655     0.2288E-1  0.9693     0.4789E-2  0.9697   
  9.670     0.2164E-1  0.9721     0.5007E-2  0.9703   
  9.685     0.2058E-1  0.9749     0.5267E-2  0.9709   
  9.700     0.1969E-1  0.9775     0.5579E-2  0.9716   
  9.715     0.1895E-1  0.9801     0.5955E-2  0.9722   
  9.730     0.1834E-1  0.9825     0.6406E-2  0.9729   
  9.745     0.1787E-1  0.9850     0.6950E-2  0.9735   
  9.760     0.1751E-1  0.9873     0.7607E-2  0.9742   
  9.775     0.1727E-1  0.9897     0.8397E-2  0.9748   
  9.790     0.1714E-1  0.9920     0.9345E-2  0.9753   
   9.80480    0.01713    0.99425    0.01047    0.97571
   9.81982    0.01724    0.99653    0.01178    0.97593
   9.83484    0.01748    0.99881    0.01326    0.97586
   9.84985    0.01786    1.00111    0.01485    0.97539
   9.86487    0.01839    1.00342    0.01639    0.97442
   9.87988    0.01908    1.00577    0.01769    0.97291
   9.89490    0.01997    1.00815    0.01850    0.97095
   9.90991    0.02108    1.01058    0.01861    0.96877
   9.92493    0.02245    1.01305    0.01800    0.96670
   9.93994    0.02413    1.01556    0.01680    0.96500
   9.95496    0.02617    1.01811    0.01528    0.96382
   9.96997    0.02866    1.02066    0.01364    0.96315
   9.98499    0.03168    1.02317    0.01208    0.96293
  10.00000    0.03533    1.02557    0.01066    0.96302
  10.02     0.3975E-1   1.028     0.9428E-2  0.9633   
  10.03     0.4504E-1   1.029     0.8379E-2  0.9638   
  10.05     0.5132E-1   1.030     0.7496E-2  0.9643   
  10.06     0.5859E-1   1.030     0.6754E-2  0.9649   
  10.08     0.6672E-1   1.028     0.6132E-2  0.9655   
  10.09     0.7526E-1   1.024     0.5610E-2  0.9660   
  10.11     0.8338E-1   1.017     0.5169E-2  0.9666   
  10.12     0.8983E-1   1.008     0.4796E-2  0.9672   
  10.14     0.9329E-1  0.9957     0.4479E-2  0.9677   
  10.15     0.9293E-1  0.9830     0.4208E-2  0.9683   
  10.17     0.8879E-1  0.9713     0.3976E-2  0.9688   
  10.18     0.8184E-1  0.9618     0.3777E-2  0.9693   
  10.20     0.7342E-1  0.9553     0.3605E-2  0.9698   
  10.21     0.6470E-1  0.9514     0.3457E-2  0.9703   
  10.23     0.5647E-1  0.9497     0.3330E-2  0.9707   
  10.24     0.4913E-1  0.9495     0.3221E-2  0.9712   
  10.26     0.4278E-1  0.9505     0.3127E-2  0.9716   
  10.27     0.3740E-1  0.9520     0.3048E-2  0.9720   
  10.29     0.3287E-1  0.9540     0.2981E-2  0.9725   
  10.30     0.2908E-1  0.9561     0.2926E-2  0.9729   
  10.32     0.2590E-1  0.9583     0.2882E-2  0.9733   
  10.33     0.2322E-1  0.9605     0.2848E-2  0.9737   
  10.35     0.2097E-1  0.9627     0.2824E-2  0.9741   
  10.36     0.1905E-1  0.9648     0.2810E-2  0.9745   
  10.38     0.1742E-1  0.9668     0.2805E-2  0.9749   
  10.39     0.1602E-1  0.9687     0.2810E-2  0.9753   
  10.41     0.1482E-1  0.9705     0.2825E-2  0.9757   
  10.42     0.1378E-1  0.9723     0.2850E-2  0.9761   
  10.44     0.1289E-1  0.9740     0.2886E-2  0.9765   
  10.45     0.1211E-1  0.9756     0.2934E-2  0.9769   
  10.47     0.1143E-1  0.9771     0.2995E-2  0.9773   
  10.48     0.1083E-1  0.9786     0.3070E-2  0.9777   
  10.50     0.1032E-1  0.9800     0.3162E-2  0.9782   
  10.51     0.9863E-2  0.9813     0.3271E-2  0.9786   
  10.53     0.9468E-2  0.9827     0.3402E-2  0.9790   
  10.54     0.9125E-2  0.9839     0.3557E-2  0.9795   
  10.56     0.8827E-2  0.9852     0.3740E-2  0.9800   
  10.57     0.8572E-2  0.9864     0.3956E-2  0.9804   
  10.59     0.8354E-2  0.9876     0.4212E-2  0.9809   
  10.60     0.8171E-2  0.9887     0.4514E-2  0.9814   
  10.62     0.8021E-2  0.9899     0.4873E-2  0.9820   
  10.63     0.7902E-2  0.9910     0.5300E-2  0.9825   
  10.65     0.7812E-2  0.9921     0.5810E-2  0.9831   
  10.66     0.7750E-2  0.9932     0.6420E-2  0.9836   
  10.68     0.7717E-2  0.9943     0.7152E-2  0.9841   
  10.69     0.7711E-2  0.9954     0.8030E-2  0.9846   
  10.71     0.7733E-2  0.9965     0.9080E-2  0.9851   
  10.72     0.7784E-2  0.9976     0.1033E-1  0.9854   
  10.74     0.7864E-2  0.9987     0.1179E-1  0.9855   
  10.75     0.7976E-2  0.9998     0.1345E-1  0.9853   
  10.77     0.8120E-2   1.001     0.1525E-1  0.9848   
  10.78     0.8301E-2   1.002     0.1707E-1  0.9836   
  10.80     0.8520E-2   1.003     0.1867E-1  0.9819   
  10.81     0.8781E-2   1.004     0.1977E-1  0.9796   
  10.83     0.9090E-2   1.006     0.2013E-1  0.9769   
  10.84     0.9453E-2   1.007     0.1965E-1  0.9743   
  10.86     0.9876E-2   1.008     0.1845E-1  0.9721   
  10.87     0.1037E-1   1.010     0.1678E-1  0.9704   
  10.88589    0.01094    1.01093    0.01494    0.96930
  10.90090    0.01161    1.01236    0.01312    0.96876
  10.91592    0.01238    1.01385    0.01146    0.96861
  10.93     0.1328E-1   1.015     0.1001E-1  0.9687   
  10.95     0.1434E-1   1.017     0.8766E-2  0.9691   
  10.96     0.1557E-1   1.019     0.7716E-2  0.9695   
  10.98     0.1703E-1   1.020     0.6836E-2  0.9700   
  10.99     0.1875E-1   1.022     0.6099E-2  0.9705   
  11.01     0.2079E-1   1.024     0.5480E-2  0.9710   
  11.02     0.2323E-1   1.026     0.4959E-2  0.9715   
  11.04     0.2613E-1   1.028     0.4518E-2  0.9720   
  11.05     0.2961E-1   1.030     0.4144E-2  0.9724   
  11.07     0.3375E-1   1.031     0.3825E-2  0.9729   
  11.08     0.3867E-1   1.032     0.3552E-2  0.9733   
  11.10     0.4441E-1   1.032     0.3316E-2  0.9738   
  11.11     0.5094E-1   1.031     0.3113E-2  0.9742   
  11.13     0.5802E-1   1.029     0.2938E-2  0.9746   
  11.14     0.6515E-1   1.024     0.2786E-2  0.9749   
  11.16     0.7144E-1   1.017     0.2655E-2  0.9753   
  11.17     0.7580E-1   1.008     0.2541E-2  0.9756   
  11.19     0.7727E-1  0.9977     0.2443E-2  0.9760   
  11.20     0.7547E-1  0.9874     0.2359E-2  0.9763   
  11.22     0.7088E-1  0.9785     0.2287E-2  0.9766   
  11.23     0.6450E-1  0.9718     0.2228E-2  0.9769   
  11.25     0.5741E-1  0.9675     0.2179E-2  0.9772   
  11.26     0.5045E-1  0.9653     0.2141E-2  0.9775   
  11.28     0.4410E-1  0.9647     0.2112E-2  0.9778   
  11.29     0.3855E-1  0.9651     0.2094E-2  0.9781   
  11.31     0.3383E-1  0.9662     0.2087E-2  0.9784   
  11.32     0.2987E-1  0.9678     0.2089E-2  0.9787   
  11.34     0.2657E-1  0.9697     0.2103E-2  0.9790   
  11.35     0.2383E-1  0.9716     0.2130E-2  0.9793   
  11.37     0.2157E-1  0.9736     0.2169E-2  0.9796   
  11.38     0.1969E-1  0.9756     0.2224E-2  0.9798   
  11.40     0.1814E-1  0.9776     0.2297E-2  0.9801   
  11.41     0.1686E-1  0.9795     0.2390E-2  0.9804   
  11.43     0.1581E-1  0.9813     0.2506E-2  0.9807   
  11.44     0.1495E-1  0.9832     0.2651E-2  0.9810   
  11.46     0.1426E-1  0.9850     0.2830E-2  0.9813   
  11.47     0.1371E-1  0.9867     0.3050E-2  0.9816   
  11.49     0.1329E-1  0.9884     0.3318E-2  0.9819   
  11.50     0.1299E-1  0.9901     0.3644E-2  0.9821   
  11.52     0.1280E-1  0.9918     0.4038E-2  0.9823   
  11.53     0.1271E-1  0.9934     0.4506E-2  0.9825   
  11.55     0.1273E-1  0.9951     0.5050E-2  0.9826   
  11.56     0.1284E-1  0.9968     0.5658E-2  0.9825   
  11.58     0.1306E-1  0.9985     0.6296E-2  0.9823   
  11.59     0.1339E-1   1.000     0.6901E-2  0.9819   
  11.61     0.1384E-1   1.002     0.7377E-2  0.9812   
  11.62     0.1442E-1   1.004     0.7626E-2  0.9804   
  11.64     0.1514E-1   1.005     0.7584E-2  0.9795   
  11.65     0.1603E-1   1.007     0.7259E-2  0.9787   
  11.67     0.1712E-1   1.009     0.6723E-2  0.9781   
  11.68     0.1843E-1   1.011     0.6078E-2  0.9777   
  11.70     0.2001E-1   1.013     0.5413E-2  0.9775   
  11.71     0.2192E-1   1.015     0.4786E-2  0.9774   
  11.73     0.2422E-1   1.017     0.4227E-2  0.9775   
  11.74     0.2698E-1   1.019     0.3743E-2  0.9776   
  11.76     0.3031E-1   1.021     0.3332E-2  0.9778   
  11.77     0.3432E-1   1.023     0.2986E-2  0.9781   
  11.79     0.3911E-1   1.025     0.2695E-2  0.9783   
  11.80     0.4478E-1   1.025     0.2451E-2  0.9785   
  11.82     0.5137E-1   1.025     0.2245E-2  0.9788   
  11.83     0.5875E-1   1.024     0.2070E-2  0.9790   
  11.85     0.6656E-1   1.020     0.1921E-2  0.9792   
  11.86     0.7408E-1   1.014     0.1794E-2  0.9795   
  11.88     0.8022E-1   1.005     0.1685E-2  0.9797   
  11.89     0.8377E-1  0.9943     0.1591E-2  0.9799   
  11.91     0.8388E-1  0.9827     0.1509E-2  0.9801   
  11.92     0.8052E-1  0.9718     0.1439E-2  0.9803   
  11.94     0.7449E-1  0.9628     0.1377E-2  0.9805   
  11.95     0.6698E-1  0.9565     0.1323E-2  0.9807   
  11.97     0.5911E-1  0.9526     0.1276E-2  0.9808   
  11.98     0.5163E-1  0.9508     0.1235E-2  0.9810   
  12.00     0.4493E-1  0.9505     0.1200E-2  0.9812   
  12.01     0.3914E-1  0.9512     0.1169E-2  0.9814   
  12.03     0.3423E-1  0.9525     0.1143E-2  0.9815   
  12.04     0.3012E-1  0.9542     0.1121E-2  0.9817   
  12.06     0.2668E-1  0.9561     0.1103E-2  0.9818   
  12.07     0.2382E-1  0.9581     0.1088E-2  0.9820   
  12.09     0.2144E-1  0.9601     0.1078E-2  0.9821   
  12.10     0.1944E-1  0.9621     0.1071E-2  0.9823   
  12.12     0.1777E-1  0.9640     0.1067E-2  0.9824   
  12.13     0.1637E-1  0.9659     0.1068E-2  0.9826   
  12.15     0.1520E-1  0.9677     0.1072E-2  0.9827   
  12.16     0.1423E-1  0.9694     0.1082E-2  0.9829   
  12.18     0.1342E-1  0.9711     0.1096E-2  0.9830   
  12.19     0.1275E-1  0.9727     0.1115E-2  0.9832   
  12.21     0.1221E-1  0.9743     0.1141E-2  0.9833   
  12.22     0.1178E-1  0.9758     0.1174E-2  0.9835   
  12.24     0.1146E-1  0.9773     0.1216E-2  0.9837   
  12.25     0.1124E-1  0.9787     0.1268E-2  0.9838   
  12.27     0.1111E-1  0.9802     0.1332E-2  0.9840   
  12.28     0.1108E-1  0.9816     0.1411E-2  0.9841   
  12.30     0.1115E-1  0.9830     0.1507E-2  0.9843   
  12.31     0.1131E-1  0.9844     0.1625E-2  0.9844   
  12.33     0.1159E-1  0.9859     0.1767E-2  0.9846   
  12.34     0.1199E-1  0.9873     0.1939E-2  0.9847   
  12.36     0.1252E-1  0.9887     0.2143E-2  0.9848   
  12.37     0.1322E-1  0.9902     0.2382E-2  0.9849   
  12.39     0.1410E-1  0.9916     0.2650E-2  0.9849   
  12.40     0.1519E-1  0.9931     0.2936E-2  0.9848   
  12.42     0.1655E-1  0.9945     0.3211E-2  0.9847   
  12.43     0.1822E-1  0.9959     0.3437E-2  0.9844   
  12.45     0.2025E-1  0.9971     0.3567E-2  0.9841   
  12.46     0.2271E-1  0.9982     0.3570E-2  0.9837   
  12.48     0.2565E-1  0.9989     0.3443E-2  0.9834   
  12.49     0.2910E-1  0.9991     0.3216E-2  0.9831   
  12.51     0.3299E-1  0.9985     0.2933E-2  0.9829   
  12.52     0.3716E-1  0.9969     0.2635E-2  0.9828   
  12.54     0.4123E-1  0.9939     0.2351E-2  0.9828   
  12.55     0.4462E-1  0.9895     0.2096E-2  0.9829   
  12.57     0.4668E-1  0.9839     0.1874E-2  0.9830   
  12.58     0.4690E-1  0.9777     0.1686E-2  0.9831   
  12.60     0.4520E-1  0.9719     0.1527E-2  0.9832   
  12.61     0.4199E-1  0.9670     0.1393E-2  0.9833   
  12.63     0.3790E-1  0.9635     0.1281E-2  0.9835   
  12.64     0.3355E-1  0.9614     0.1186E-2  0.9836   
  12.66     0.2938E-1  0.9604     0.1106E-2  0.9837   
  12.67     0.2561E-1  0.9603     0.1038E-2  0.9839   
  12.69     0.2234E-1  0.9607     0.9802E-3  0.9840   
  12.70     0.1956E-1  0.9615     0.9303E-3  0.9841   
  12.72     0.1721E-1  0.9625     0.8873E-3  0.9842   
  12.73     0.1523E-1  0.9636     0.8500E-3  0.9843   
  12.75     0.1358E-1  0.9648     0.8177E-3  0.9845   
  12.76     0.1218E-1  0.9660     0.7895E-3  0.9846   
  12.78     0.1100E-1  0.9671     0.7649E-3  0.9847   
  12.79     0.9999E-2  0.9682     0.7435E-3  0.9848   
  12.81     0.9144E-2  0.9693     0.7247E-3  0.9849   
  12.82     0.8410E-2  0.9703     0.7084E-3  0.9850   
  12.84     0.7777E-2  0.9712     0.6942E-3  0.9851   
  12.85     0.7228E-2  0.9721     0.6819E-3  0.9852   
  12.87     0.6750E-2  0.9730     0.6714E-3  0.9853   
  12.88     0.6333E-2  0.9739     0.6625E-3  0.9854   
  12.90     0.5968E-2  0.9747     0.6551E-3  0.9855   
  12.91     0.5646E-2  0.9754     0.6492E-3  0.9856   
  12.93     0.5363E-2  0.9762     0.6447E-3  0.9857   
  12.94     0.5113E-2  0.9769     0.6415E-3  0.9858   
  12.96     0.4893E-2  0.9776     0.6396E-3  0.9858   
  12.97     0.4699E-2  0.9782     0.6391E-3  0.9859   
  12.99     0.4528E-2  0.9789     0.6399E-3  0.9860   
  13.00     0.4378E-2  0.9795     0.6422E-3  0.9861   
  13.02     0.4248E-2  0.9801     0.6460E-3  0.9862   
  13.03     0.4136E-2  0.9807     0.6514E-3  0.9863   
  13.05     0.4040E-2  0.9812     0.6586E-3  0.9864   
  13.06     0.3960E-2  0.9818     0.6676E-3  0.9865   
  13.08     0.3894E-2  0.9823     0.6788E-3  0.9866   
  13.09     0.3841E-2  0.9829     0.6923E-3  0.9867   
  13.11     0.3798E-2  0.9834     0.7083E-3  0.9868   
  13.12     0.3762E-2  0.9839     0.7272E-3  0.9869   
  13.14     0.3731E-2  0.9844     0.7490E-3  0.9870   
  13.15     0.3703E-2  0.9848     0.7737E-3  0.9871   
  13.17     0.3678E-2  0.9853     0.8011E-3  0.9872   
  13.18     0.3659E-2  0.9858     0.8311E-3  0.9873   
  13.20     0.3647E-2  0.9863     0.8635E-3  0.9874   
  13.21     0.3647E-2  0.9868     0.8987E-3  0.9875   
  13.23     0.3658E-2  0.9873     0.9378E-3  0.9876   
  13.24     0.3684E-2  0.9878     0.9827E-3  0.9877   
  13.26     0.3725E-2  0.9883     0.1035E-2  0.9878   
  13.27     0.3782E-2  0.9888     0.1098E-2  0.9879   
  13.29     0.3856E-2  0.9894     0.1174E-2  0.9881   
  13.30     0.3948E-2  0.9899     0.1264E-2  0.9882   
  13.32     0.4061E-2  0.9904     0.1373E-2  0.9883   
  13.33     0.4197E-2  0.9910     0.1504E-2  0.9885   
  13.35     0.4359E-2  0.9916     0.1662E-2  0.9886   
  13.36     0.4550E-2  0.9922     0.1852E-2  0.9887   
  13.38     0.4775E-2  0.9928     0.2080E-2  0.9888   
  13.39     0.5039E-2  0.9934     0.2350E-2  0.9889   
  13.41     0.5349E-2  0.9940     0.2667E-2  0.9890   
  13.42     0.5714E-2  0.9947     0.3028E-2  0.9889   
  13.44     0.6143E-2  0.9954     0.3420E-2  0.9888   
  13.45     0.6651E-2  0.9961     0.3814E-2  0.9886   
  13.47     0.7253E-2  0.9969     0.4161E-2  0.9882   
  13.48     0.7969E-2  0.9976     0.4400E-2  0.9877   
  13.50     0.8823E-2  0.9984     0.4478E-2  0.9872   
  13.51     0.9845E-2  0.9991     0.4374E-2  0.9866   
  13.53     0.1107E-1  0.9998     0.4115E-2  0.9862   
  13.54     0.1253E-1   1.000     0.3755E-2  0.9858   
  13.56     0.1428E-1   1.001     0.3356E-2  0.9856   
  13.57     0.1633E-1   1.001     0.2964E-2  0.9855   
  13.59     0.1868E-1   1.001     0.2605E-2  0.9855   
  13.60     0.2129E-1   1.000     0.2291E-2  0.9855   
  13.62     0.2398E-1  0.9990     0.2023E-2  0.9856   
  13.63     0.2648E-1  0.9967     0.1797E-2  0.9857   
  13.65     0.2839E-1  0.9935     0.1608E-2  0.9859   
  13.66     0.2930E-1  0.9897     0.1449E-2  0.9860   
  13.68     0.2899E-1  0.9858     0.1317E-2  0.9861   
  13.69     0.2755E-1  0.9822     0.1205E-2  0.9862   
  13.71     0.2529E-1  0.9795     0.1111E-2  0.9864   
  13.72     0.2264E-1  0.9776     0.1032E-2  0.9865   
  13.74     0.1996E-1  0.9765     0.9643E-3  0.9866   
  13.75     0.1745E-1  0.9761     0.9067E-3  0.9867   
  13.77     0.1524E-1  0.9762     0.8575E-3  0.9868   
  13.78     0.1334E-1  0.9766     0.8153E-3  0.9870   
  13.80     0.1173E-1  0.9771     0.7792E-3  0.9871   
  13.81     0.1039E-1  0.9778     0.7482E-3  0.9872   
  13.83     0.9270E-2  0.9785     0.7217E-3  0.9873   
  13.84     0.8338E-2  0.9793     0.6992E-3  0.9874   
  13.86     0.7562E-2  0.9800     0.6801E-3  0.9875   
  13.87     0.6916E-2  0.9807     0.6642E-3  0.9875   
  13.89     0.6378E-2  0.9814     0.6512E-3  0.9876   
  13.90     0.5932E-2  0.9821     0.6408E-3  0.9877   
  13.92     0.5564E-2  0.9827     0.6329E-3  0.9878   
  13.93     0.5263E-2  0.9833     0.6274E-3  0.9879   
  13.95     0.5016E-2  0.9839     0.6243E-3  0.9880   
  13.96     0.4814E-2  0.9844     0.6234E-3  0.9881   
  13.98     0.4643E-2  0.9849     0.6248E-3  0.9882   
  13.99     0.4488E-2  0.9854     0.6284E-3  0.9883   
  14.01     0.4337E-2  0.9858     0.6341E-3  0.9883   
  14.02     0.4178E-2  0.9862     0.6417E-3  0.9884   
  14.04     0.4011E-2  0.9865     0.6507E-3  0.9885   
  14.05     0.3839E-2  0.9869     0.6610E-3  0.9886   
  14.07     0.3672E-2  0.9873     0.6725E-3  0.9887   
  14.08     0.3517E-2  0.9877     0.6853E-3  0.9888   
  14.10     0.3377E-2  0.9881     0.7001E-3  0.9889   
  14.11     0.3254E-2  0.9885     0.7176E-3  0.9889   
  14.13     0.3149E-2  0.9890     0.7386E-3  0.9890   
  14.14     0.3059E-2  0.9894     0.7638E-3  0.9891   
  14.16     0.2985E-2  0.9898     0.7940E-3  0.9892   
  14.17     0.2923E-2  0.9902     0.8298E-3  0.9894   
  14.19     0.2872E-2  0.9906     0.8721E-3  0.9895   
  14.20     0.2832E-2  0.9910     0.9220E-3  0.9896   
  14.22     0.2802E-2  0.9914     0.9808E-3  0.9897   
  14.23     0.2780E-2  0.9918     0.1050E-2  0.9898   
  14.25     0.2766E-2  0.9922     0.1132E-2  0.9899   
  14.26     0.2759E-2  0.9926     0.1228E-2  0.9901   
  14.28     0.2759E-2  0.9930     0.1343E-2  0.9902   
  14.29     0.2767E-2  0.9934     0.1479E-2  0.9903   
  14.31     0.2781E-2  0.9938     0.1642E-2  0.9905   
  14.32     0.2801E-2  0.9942     0.1836E-2  0.9906   
  14.34     0.2828E-2  0.9946     0.2069E-2  0.9907   
  14.35     0.2861E-2  0.9950     0.2348E-2  0.9909   
  14.37     0.2902E-2  0.9954     0.2680E-2  0.9909   
  14.38     0.2949E-2  0.9959     0.3069E-2  0.9910   
  14.40     0.3003E-2  0.9963     0.3514E-2  0.9909   
  14.41     0.3065E-2  0.9967     0.4002E-2  0.9908   
  14.43     0.3134E-2  0.9972     0.4501E-2  0.9905   
  14.44     0.3213E-2  0.9976     0.4954E-2  0.9900   
  14.46     0.3300E-2  0.9981     0.5285E-2  0.9894   
  14.47     0.3396E-2  0.9986     0.5422E-2  0.9887   
  14.49     0.3504E-2  0.9991     0.5331E-2  0.9880   
  14.50     0.3622E-2  0.9996     0.5033E-2  0.9873   
  14.52     0.3753E-2   1.000     0.4596E-2  0.9868   
  14.53     0.3898E-2   1.001     0.4097E-2  0.9865   
  14.55     0.4057E-2   1.001     0.3597E-2  0.9863   
  14.56     0.4234E-2   1.002     0.3136E-2  0.9862   
  14.58     0.4429E-2   1.002     0.2729E-2  0.9863   
  14.59     0.4645E-2   1.003     0.2379E-2  0.9863   
  14.61     0.4884E-2   1.004     0.2084E-2  0.9864   
  14.62     0.5149E-2   1.004     0.1836E-2  0.9865   
  14.64     0.5444E-2   1.005     0.1628E-2  0.9867   
  14.65     0.5773E-2   1.006     0.1453E-2  0.9868   
  14.67     0.6141E-2   1.007     0.1305E-2  0.9869   
  14.68     0.6554E-2   1.007     0.1180E-2  0.9871   
  14.70     0.7017E-2   1.008     0.1074E-2  0.9872   
  14.71     0.7540E-2   1.009     0.9824E-3  0.9873   
  14.73     0.8133E-2   1.010     0.9038E-3  0.9874   
  14.74     0.8806E-2   1.011     0.8357E-3  0.9875   
  14.76     0.9576E-2   1.012     0.7764E-3  0.9876   
  14.77     0.1046E-1   1.014     0.7244E-3  0.9877   
  14.79     0.1147E-1   1.015     0.6787E-3  0.9878   
  14.80     0.1265E-1   1.016     0.6382E-3  0.9879   
  14.82     0.1403E-1   1.018     0.6023E-3  0.9880   
  14.83     0.1563E-1   1.019     0.5702E-3  0.9880   
  14.85     0.1752E-1   1.021     0.5415E-3  0.9881   
  14.86     0.1976E-1   1.022     0.5156E-3  0.9882   
  14.88     0.2242E-1   1.024     0.4923E-3  0.9883   
  14.89     0.2558E-1   1.025     0.4712E-3  0.9883   
  14.91     0.2937E-1   1.027     0.4520E-3  0.9884   
  14.92     0.3387E-1   1.028     0.4345E-3  0.9884   
  14.94     0.3921E-1   1.029     0.4184E-3  0.9885   
  14.95     0.4543E-1   1.028     0.4038E-3  0.9886   
  14.97     0.5249E-1   1.027     0.3903E-3  0.9886   
  14.98     0.6013E-1   1.024     0.3778E-3  0.9887   
  15.00     0.6776E-1   1.018     0.3663E-3  0.9887   
# 
# YAMBO@anomaly.roma2.infn.it x 001 CPUs * 08/29/2008  10:05 [start]
#                                          08/29/2008  10:05 [end]
# 
# Cpu Timing [Min/Max/Average]: 27s/27s/27s
#
# .-Input file : Inputs/04_alda_r_space
# | optics                       # [R OPT] Optics
# | bse                          # [R BSK] Bethe Salpeter Equation.
# | bss                          # [R BSS] Bethe Salpeter Equation solver
# | alda_fxc                     # [R TDDFT] The ALDA TDDFT kernel
# | FFTGvecs=  9987          RL  # [FFT] Plane-waves
# | BSresKmod= "x"               # [BSK] Resonant Kernel mode. (`x`;`c`;`d`)
# | % BSEBands
# |    1 | 200 |                 # [BSK] Bands range
# | %
# | BSENGexx=  9045          RL  # [BSK] Exchange components
# | BSSmod= "d"                  # [BSS] Solvers `h/d/i/t`
# | % BEnRange
# |   0.00000 | 15.00000 |   eV  # [BSS] Energy range
# | %
# | % BDmRange
# |   0.10000 |  0.10000 |   eV  # [BSS] Damping range
# | %
# | BEnSteps= 1000               # [BSS] Energy steps
# | % BLongDir
# | 0.1000E-4 | 0.000    | 0.000    |      # [BSS] [cc] Electric Field
# | %
