#  __  __   ________   ___ __ __    _______   ______        
# /_/\/_/\ /_______/\ /__//_//_/\ /_______/\ /_____/\       
# \ \ \ \ \\::: _  \ \\::\| \| \ \\::: _  \ \\:::_ \ \      
#  \:\_\ \ \\::(_)  \ \\:.      \ \\::(_)  \/_\:\ \ \ \     
#   \::::_\/ \:: __  \ \\:.\-/\  \ \\::  _  \ \\:\ \ \ \    
#     \::\ \  \:.\ \  \ \\. \  \  \ \\::(_)  \ \\:\_\ \ \   
#      \__\/   \__\/\__\/ \__\/ \__\/ \_______\/ \_____\/   
#                                                           
#             GPL Version 3.2.4 Revision 941                
#                http://www.yambo-code.org                  
#
# EELS @ Q(1)  [q->0 direction]:0.1000E-4  0.000     0.000   
#
#
# - Energies      are Teter Parametrization(93) (xc)
# - Wavefunctions are Teter Parametrization(93) (xc)
#
# - The Green`s function is resonant -
# - Using Shifted Grids -
# - [r,Vnl] *is* included -
#
#   BSK|Identifier              :1144
#      |Dimension               :199
#      |Bands                   :1 - 200
#      |Exchange           [res]: yes
#      |Correlation        [res]: no
#      |Kernel`s coupling       : no
#      |Exchange           [cpl]: no
#      |W interaction is bare   : no
#      |Correlation        [cpl]: no
#      |ALDA kernel in R-space  : yes
#      |RL vectors    [exchange]:9045
#      |E/h energy range    [ev]:-1.000000 - -1.000000
#      |Coupling range     [o/o]: 100.0000 -  100.0000
#
#  E/ev[1]    eel /Im[2] eel /Re[3] eel0/Im[4] eel0/Re[5]
#
  0.00      0.132E-10  -.989      0.615E-11  -.983    
 0.1502E-1  0.5399E-4  -.9893     0.9863E-4  -.9832   
 0.3003E-1  0.5480E-4  -.9893     0.1002E-3  -.9832   
 0.4505E-1  0.5500E-4  -.9893     0.1007E-3  -.9833   
 0.6006E-1  0.5518E-4  -.9893     0.1011E-3  -.9833   
 0.7508E-1  0.5535E-4  -.9893     0.1015E-3  -.9833   
 0.9009E-1  0.5552E-4  -.9893     0.1019E-3  -.9833   
 0.1051     0.5569E-4  -.9893     0.1023E-3  -.9833   
 0.1201     0.5585E-4  -.9893     0.1027E-3  -.9833   
 0.1351     0.5602E-4  -.9893     0.1031E-3  -.9833   
 0.1502     0.5618E-4  -.9894     0.1035E-3  -.9833   
 0.1652     0.5635E-4  -.9894     0.1039E-3  -.9833   
 0.1802     0.5651E-4  -.9894     0.1043E-3  -.9833   
 0.1952     0.5668E-4  -.9894     0.1047E-3  -.9833   
 0.2102     0.5685E-4  -.9894     0.1051E-3  -.9833   
 0.2252     0.5701E-4  -.9894     0.1055E-3  -.9834   
 0.2402     0.5718E-4  -.9894     0.1059E-3  -.9834   
 0.2553     0.5735E-4  -.9894     0.1063E-3  -.9834   
 0.2703     0.5752E-4  -.9894     0.1067E-3  -.9834   
 0.2853     0.5769E-4  -.9894     0.1071E-3  -.9834   
 0.3003     0.5786E-4  -.9894     0.1075E-3  -.9834   
 0.3153     0.5803E-4  -.9894     0.1079E-3  -.9834   
 0.3303     0.5820E-4  -.9894     0.1084E-3  -.9834   
 0.3453     0.5837E-4  -.9894     0.1088E-3  -.9834   
 0.3604     0.5855E-4  -.9894     0.1092E-3  -.9834   
 0.3754     0.5872E-4  -.9894     0.1096E-3  -.9834   
 0.3904     0.5889E-4  -.9894     0.1101E-3  -.9834   
 0.4054     0.5907E-4  -.9894     0.1105E-3  -.9834   
 0.4204     0.5925E-4  -.9894     0.1109E-3  -.9834   
 0.4354     0.5942E-4  -.9894     0.1114E-3  -.9834   
 0.4505     0.5960E-4  -.9894     0.1118E-3  -.9834   
 0.4655     0.5978E-4  -.9894     0.1122E-3  -.9834   
 0.4805     0.5996E-4  -.9894     0.1127E-3  -.9834   
 0.4955     0.6014E-4  -.9894     0.1131E-3  -.9834   
 0.5105     0.6032E-4  -.9894     0.1136E-3  -.9834   
 0.5255     0.6050E-4  -.9894     0.1140E-3  -.9833   
 0.5405     0.6068E-4  -.9894     0.1145E-3  -.9833   
 0.5556     0.6087E-4  -.9894     0.1149E-3  -.9833   
 0.5706     0.6105E-4  -.9894     0.1154E-3  -.9833   
 0.5856     0.6124E-4  -.9894     0.1159E-3  -.9833   
 0.6006     0.6142E-4  -.9894     0.1163E-3  -.9833   
 0.6156     0.6161E-4  -.9894     0.1168E-3  -.9833   
 0.6306     0.6180E-4  -.9894     0.1173E-3  -.9833   
 0.6456     0.6198E-4  -.9894     0.1177E-3  -.9833   
 0.6607     0.6217E-4  -.9894     0.1182E-3  -.9833   
 0.6757     0.6236E-4  -.9894     0.1187E-3  -.9833   
 0.6907     0.6255E-4  -.9894     0.1192E-3  -.9833   
 0.7057     0.6275E-4  -.9894     0.1197E-3  -.9833   
 0.7207     0.6294E-4  -.9894     0.1201E-3  -.9833   
 0.7357     0.6313E-4  -.9894     0.1206E-3  -.9833   
 0.7508     0.6333E-4  -.9894     0.1211E-3  -.9833   
 0.7658     0.6352E-4  -.9894     0.1216E-3  -.9833   
 0.7808     0.6372E-4  -.9894     0.1221E-3  -.9833   
 0.7958     0.6392E-4  -.9894     0.1226E-3  -.9833   
 0.8108     0.6411E-4  -.9893     0.1231E-3  -.9833   
 0.8258     0.6431E-4  -.9893     0.1236E-3  -.9833   
 0.8408     0.6451E-4  -.9893     0.1242E-3  -.9833   
 0.8559     0.6471E-4  -.9893     0.1247E-3  -.9833   
 0.8709     0.6492E-4  -.9893     0.1252E-3  -.9833   
 0.8859     0.6512E-4  -.9893     0.1257E-3  -.9833   
 0.9009     0.6532E-4  -.9893     0.1262E-3  -.9832   
 0.9159     0.6553E-4  -.9893     0.1268E-3  -.9832   
 0.9309     0.6573E-4  -.9893     0.1273E-3  -.9832   
 0.9459     0.6594E-4  -.9893     0.1278E-3  -.9832   
 0.9610     0.6615E-4  -.9893     0.1284E-3  -.9832   
 0.9760     0.6636E-4  -.9893     0.1289E-3  -.9832   
 0.9910     0.6657E-4  -.9893     0.1294E-3  -.9832   
  1.006     0.6678E-4  -.9893     0.1300E-3  -.9832   
  1.021     0.6699E-4  -.9893     0.1305E-3  -.9832   
  1.036     0.6720E-4  -.9893     0.1311E-3  -.9832   
  1.051     0.6742E-4  -.9893     0.1317E-3  -.9832   
  1.066     0.6763E-4  -.9893     0.1322E-3  -.9832   
  1.081     0.6785E-4  -.9893     0.1328E-3  -.9832   
  1.096     0.6807E-4  -.9893     0.1334E-3  -.9832   
  1.111     0.6828E-4  -.9893     0.1339E-3  -.9832   
  1.126     0.6850E-4  -.9893     0.1345E-3  -.9831   
  1.141     0.6872E-4  -.9893     0.1351E-3  -.9831   
  1.156     0.6894E-4  -.9893     0.1357E-3  -.9831   
  1.171     0.6917E-4  -.9893     0.1363E-3  -.9831   
  1.186     0.6939E-4  -.9893     0.1368E-3  -.9831   
  1.201     0.6962E-4  -.9893     0.1374E-3  -.9831   
  1.216     0.6984E-4  -.9893     0.1380E-3  -.9831   
  1.231     0.7007E-4  -.9893     0.1386E-3  -.9831   
  1.246     0.7030E-4  -.9893     0.1392E-3  -.9831   
  1.261     0.7053E-4  -.9893     0.1399E-3  -.9831   
  1.276     0.7076E-4  -.9893     0.1405E-3  -.9831   
  1.291     0.7099E-4  -.9893     0.1411E-3  -.9830   
  1.306     0.7122E-4  -.9893     0.1417E-3  -.9830   
  1.321     0.7145E-4  -.9893     0.1423E-3  -.9830   
  1.336     0.7169E-4  -.9893     0.1430E-3  -.9830   
  1.351     0.7193E-4  -.9892     0.1436E-3  -.9830   
  1.366     0.7216E-4  -.9892     0.1442E-3  -.9830   
  1.381     0.7240E-4  -.9892     0.1449E-3  -.9830   
  1.396     0.7264E-4  -.9892     0.1455E-3  -.9830   
  1.411     0.7288E-4  -.9892     0.1462E-3  -.9830   
  1.426     0.7313E-4  -.9892     0.1468E-3  -.9830   
  1.441     0.7337E-4  -.9892     0.1475E-3  -.9830   
  1.456     0.7361E-4  -.9892     0.1482E-3  -.9829   
  1.471     0.7386E-4  -.9892     0.1488E-3  -.9829   
  1.486     0.7411E-4  -.9892     0.1495E-3  -.9829   
  1.502     0.7436E-4  -.9892     0.1502E-3  -.9829   
  1.517     0.7461E-4  -.9892     0.1509E-3  -.9829   
  1.532     0.7486E-4  -.9892     0.1516E-3  -.9829   
  1.547     0.7511E-4  -.9892     0.1523E-3  -.9829   
  1.562     0.7536E-4  -.9892     0.1530E-3  -.9829   
  1.577     0.7562E-4  -.9892     0.1537E-3  -.9828   
  1.592     0.7587E-4  -.9892     0.1544E-3  -.9828   
  1.607     0.7613E-4  -.9892     0.1551E-3  -.9828   
  1.622     0.7639E-4  -.9892     0.1558E-3  -.9828   
  1.637     0.7665E-4  -.9892     0.1565E-3  -.9828   
  1.652     0.7691E-4  -.9892     0.1572E-3  -.9828   
  1.667     0.7718E-4  -.9892     0.1580E-3  -.9828   
  1.682     0.7744E-4  -.9892     0.1587E-3  -.9828   
  1.697     0.7771E-4  -.9891     0.1595E-3  -.9827   
  1.712     0.7797E-4  -.9891     0.1602E-3  -.9827   
  1.727     0.7824E-4  -.9891     0.1610E-3  -.9827   
  1.742     0.7851E-4  -.9891     0.1617E-3  -.9827   
  1.757     0.7878E-4  -.9891     0.1625E-3  -.9827   
  1.772     0.7906E-4  -.9891     0.1632E-3  -.9827   
  1.787     0.7933E-4  -.9891     0.1640E-3  -.9827   
  1.802     0.7961E-4  -.9891     0.1648E-3  -.9826   
  1.817     0.7989E-4  -.9891     0.1656E-3  -.9826   
  1.832     0.8017E-4  -.9891     0.1664E-3  -.9826   
  1.847     0.8045E-4  -.9891     0.1672E-3  -.9826   
  1.862     0.8073E-4  -.9891     0.1680E-3  -.9826   
  1.877     0.8101E-4  -.9891     0.1688E-3  -.9826   
  1.892     0.8130E-4  -.9891     0.1696E-3  -.9826   
  1.907     0.8158E-4  -.9891     0.1704E-3  -.9825   
  1.922     0.8187E-4  -.9891     0.1712E-3  -.9825   
  1.937     0.8216E-4  -.9891     0.1721E-3  -.9825   
  1.952     0.8245E-4  -.9891     0.1729E-3  -.9825   
  1.967     0.8274E-4  -.9890     0.1738E-3  -.9825   
  1.982     0.8304E-4  -.9890     0.1746E-3  -.9825   
  1.997     0.8334E-4  -.9890     0.1755E-3  -.9824   
  2.012     0.8363E-4  -.9890     0.1763E-3  -.9824   
  2.027     0.8393E-4  -.9890     0.1772E-3  -.9824   
  2.042     0.8423E-4  -.9890     0.1781E-3  -.9824   
  2.057     0.8454E-4  -.9890     0.1790E-3  -.9824   
  2.072     0.8484E-4  -.9890     0.1799E-3  -.9824   
  2.087     0.8515E-4  -.9890     0.1807E-3  -.9823   
  2.102     0.8546E-4  -.9890     0.1816E-3  -.9823   
  2.117     0.8577E-4  -.9890     0.1826E-3  -.9823   
  2.132     0.8608E-4  -.9890     0.1835E-3  -.9823   
  2.147     0.8639E-4  -.9890     0.1844E-3  -.9823   
  2.162     0.8670E-4  -.9890     0.1853E-3  -.9823   
  2.177     0.8702E-4  -.9890     0.1863E-3  -.9822   
  2.192     0.8734E-4  -.9890     0.1872E-3  -.9822   
  2.207     0.8766E-4  -.9889     0.1882E-3  -.9822   
  2.222     0.8798E-4  -.9889     0.1891E-3  -.9822   
  2.237     0.8831E-4  -.9889     0.1901E-3  -.9822   
  2.252     0.8863E-4  -.9889     0.1911E-3  -.9821   
  2.267     0.8896E-4  -.9889     0.1920E-3  -.9821   
  2.282     0.8929E-4  -.9889     0.1930E-3  -.9821   
  2.297     0.8962E-4  -.9889     0.1940E-3  -.9821   
  2.312     0.8995E-4  -.9889     0.1950E-3  -.9821   
  2.327     0.9029E-4  -.9889     0.1960E-3  -.9820   
  2.342     0.9062E-4  -.9889     0.1971E-3  -.9820   
  2.357     0.9096E-4  -.9889     0.1981E-3  -.9820   
  2.372     0.9130E-4  -.9889     0.1991E-3  -.9820   
  2.387     0.9165E-4  -.9889     0.2002E-3  -.9820   
  2.402     0.9199E-4  -.9888     0.2012E-3  -.9819   
  2.417     0.9234E-4  -.9888     0.2023E-3  -.9819   
  2.432     0.9269E-4  -.9888     0.2033E-3  -.9819   
  2.447     0.9304E-4  -.9888     0.2044E-3  -.9819   
  2.462     0.9339E-4  -.9888     0.2055E-3  -.9819   
  2.477     0.9375E-4  -.9888     0.2066E-3  -.9818   
  2.492     0.9410E-4  -.9888     0.2077E-3  -.9818   
  2.508     0.9446E-4  -.9888     0.2088E-3  -.9818   
  2.523     0.9482E-4  -.9888     0.2099E-3  -.9818   
  2.538     0.9519E-4  -.9888     0.2111E-3  -.9817   
  2.553     0.9555E-4  -.9888     0.2122E-3  -.9817   
  2.568     0.9592E-4  -.9888     0.2133E-3  -.9817   
  2.583     0.9629E-4  -.9887     0.2145E-3  -.9817   
  2.598     0.9666E-4  -.9887     0.2157E-3  -.9817   
  2.613     0.9704E-4  -.9887     0.2168E-3  -.9816   
  2.628     0.9741E-4  -.9887     0.2180E-3  -.9816   
  2.643     0.9779E-4  -.9887     0.2192E-3  -.9816   
  2.658     0.9817E-4  -.9887     0.2204E-3  -.9816   
  2.673     0.9856E-4  -.9887     0.2217E-3  -.9815   
  2.688     0.9894E-4  -.9887     0.2229E-3  -.9815   
  2.703     0.9933E-4  -.9887     0.2241E-3  -.9815   
  2.718     0.9972E-4  -.9887     0.2254E-3  -.9815   
  2.733     0.1001E-3  -.9887     0.2266E-3  -.9814   
  2.748     0.1005E-3  -.9887     0.2279E-3  -.9814   
  2.763     0.1009E-3  -.9886     0.2292E-3  -.9814   
  2.778     0.1013E-3  -.9886     0.2304E-3  -.9814   
  2.793     0.1017E-3  -.9886     0.2317E-3  -.9813   
  2.808     0.1021E-3  -.9886     0.2331E-3  -.9813   
  2.823     0.1025E-3  -.9886     0.2344E-3  -.9813   
  2.838     0.1029E-3  -.9886     0.2357E-3  -.9813   
  2.853     0.1033E-3  -.9886     0.2371E-3  -.9812   
  2.868     0.1038E-3  -.9886     0.2384E-3  -.9812   
  2.883     0.1042E-3  -.9886     0.2398E-3  -.9812   
  2.898     0.1046E-3  -.9886     0.2412E-3  -.9811   
  2.913     0.1050E-3  -.9885     0.2426E-3  -.9811   
  2.928     0.1055E-3  -.9885     0.2440E-3  -.9811   
  2.943     0.1059E-3  -.9885     0.2454E-3  -.9811   
  2.958     0.1063E-3  -.9885     0.2468E-3  -.9810   
  2.973     0.1067E-3  -.9885     0.2482E-3  -.9810   
  2.988     0.1072E-3  -.9885     0.2497E-3  -.9810   
  3.003     0.1076E-3  -.9885     0.2512E-3  -.9809   
  3.018     0.1081E-3  -.9885     0.2526E-3  -.9809   
  3.033     0.1085E-3  -.9885     0.2541E-3  -.9809   
  3.048     0.1090E-3  -.9885     0.2556E-3  -.9809   
  3.063     0.1094E-3  -.9884     0.2572E-3  -.9808   
  3.078     0.1099E-3  -.9884     0.2587E-3  -.9808   
  3.093     0.1103E-3  -.9884     0.2602E-3  -.9808   
  3.108     0.1108E-3  -.9884     0.2618E-3  -.9807   
  3.123     0.1112E-3  -.9884     0.2634E-3  -.9807   
  3.138     0.1117E-3  -.9884     0.2650E-3  -.9807   
  3.153     0.1122E-3  -.9884     0.2666E-3  -.9806   
  3.168     0.1126E-3  -.9884     0.2682E-3  -.9806   
  3.183     0.1131E-3  -.9884     0.2698E-3  -.9806   
  3.198     0.1136E-3  -.9883     0.2715E-3  -.9805   
  3.213     0.1141E-3  -.9883     0.2731E-3  -.9805   
  3.228     0.1146E-3  -.9883     0.2748E-3  -.9805   
  3.243     0.1151E-3  -.9883     0.2765E-3  -.9804   
  3.258     0.1155E-3  -.9883     0.2782E-3  -.9804   
  3.273     0.1160E-3  -.9883     0.2799E-3  -.9804   
  3.288     0.1165E-3  -.9883     0.2817E-3  -.9803   
  3.303     0.1170E-3  -.9883     0.2834E-3  -.9803   
  3.318     0.1175E-3  -.9882     0.2852E-3  -.9803   
  3.333     0.1180E-3  -.9882     0.2870E-3  -.9802   
  3.348     0.1186E-3  -.9882     0.2888E-3  -.9802   
  3.363     0.1191E-3  -.9882     0.2906E-3  -.9802   
  3.378     0.1196E-3  -.9882     0.2925E-3  -.9801   
  3.393     0.1201E-3  -.9882     0.2943E-3  -.9801   
  3.408     0.1206E-3  -.9882     0.2962E-3  -.9800   
  3.423     0.1212E-3  -.9882     0.2981E-3  -.9800   
  3.438     0.1217E-3  -.9881     0.3000E-3  -.9800   
  3.453     0.1222E-3  -.9881     0.3019E-3  -.9799   
  3.468     0.1228E-3  -.9881     0.3039E-3  -.9799   
  3.483     0.1233E-3  -.9881     0.3059E-3  -.9799   
  3.498     0.1239E-3  -.9881     0.3078E-3  -.9798   
  3.514     0.1244E-3  -.9881     0.3099E-3  -.9798   
  3.529     0.1250E-3  -.9881     0.3119E-3  -.9797   
  3.544     0.1255E-3  -.9881     0.3139E-3  -.9797   
  3.559     0.1261E-3  -.9880     0.3160E-3  -.9797   
  3.574     0.1266E-3  -.9880     0.3181E-3  -.9796   
  3.589     0.1272E-3  -.9880     0.3202E-3  -.9796   
  3.604     0.1278E-3  -.9880     0.3223E-3  -.9795   
  3.619     0.1284E-3  -.9880     0.3245E-3  -.9795   
  3.634     0.1289E-3  -.9880     0.3267E-3  -.9795   
  3.649     0.1295E-3  -.9880     0.3289E-3  -.9794   
  3.664     0.1301E-3  -.9879     0.3311E-3  -.9794   
  3.679     0.1307E-3  -.9879     0.3333E-3  -.9793   
  3.694     0.1313E-3  -.9879     0.3356E-3  -.9793   
  3.709     0.1319E-3  -.9879     0.3379E-3  -.9792   
  3.724     0.1325E-3  -.9879     0.3402E-3  -.9792   
  3.739     0.1331E-3  -.9879     0.3425E-3  -.9792   
  3.754     0.1338E-3  -.9879     0.3449E-3  -.9791   
  3.769     0.1344E-3  -.9878     0.3473E-3  -.9791   
  3.784     0.1350E-3  -.9878     0.3497E-3  -.9790   
  3.799     0.1356E-3  -.9878     0.3521E-3  -.9790   
  3.814     0.1363E-3  -.9878     0.3546E-3  -.9789   
  3.829     0.1369E-3  -.9878     0.3571E-3  -.9789   
  3.844     0.1375E-3  -.9878     0.3596E-3  -.9788   
  3.859     0.1382E-3  -.9877     0.3621E-3  -.9788   
  3.874     0.1388E-3  -.9877     0.3647E-3  -.9787   
  3.889     0.1395E-3  -.9877     0.3673E-3  -.9787   
  3.904     0.1402E-3  -.9877     0.3699E-3  -.9786   
  3.919     0.1408E-3  -.9877     0.3725E-3  -.9786   
  3.934     0.1415E-3  -.9877     0.3752E-3  -.9785   
  3.949     0.1422E-3  -.9877     0.3779E-3  -.9785   
  3.964     0.1429E-3  -.9876     0.3806E-3  -.9784   
  3.979     0.1435E-3  -.9876     0.3834E-3  -.9784   
  3.994     0.1442E-3  -.9876     0.3862E-3  -.9783   
  4.009     0.1449E-3  -.9876     0.3890E-3  -.9783   
  4.024     0.1456E-3  -.9876     0.3919E-3  -.9782   
  4.039     0.1464E-3  -.9876     0.3948E-3  -.9782   
  4.054     0.1471E-3  -.9875     0.3977E-3  -.9781   
  4.069     0.1478E-3  -.9875     0.4007E-3  -.9781   
  4.084     0.1485E-3  -.9875     0.4036E-3  -.9780   
  4.099     0.1492E-3  -.9875     0.4067E-3  -.9780   
  4.114     0.1500E-3  -.9875     0.4097E-3  -.9779   
  4.129     0.1507E-3  -.9875     0.4128E-3  -.9779   
  4.144     0.1515E-3  -.9874     0.4159E-3  -.9778   
  4.159     0.1522E-3  -.9874     0.4191E-3  -.9778   
  4.174     0.1530E-3  -.9874     0.4223E-3  -.9777   
  4.189     0.1537E-3  -.9874     0.4255E-3  -.9777   
  4.204     0.1545E-3  -.9874     0.4288E-3  -.9776   
  4.219     0.1553E-3  -.9873     0.4321E-3  -.9775   
  4.234     0.1561E-3  -.9873     0.4355E-3  -.9775   
  4.249     0.1569E-3  -.9873     0.4389E-3  -.9774   
  4.264     0.1577E-3  -.9873     0.4423E-3  -.9774   
  4.279     0.1585E-3  -.9873     0.4457E-3  -.9773   
  4.294     0.1593E-3  -.9873     0.4493E-3  -.9772   
  4.309     0.1601E-3  -.9872     0.4528E-3  -.9772   
  4.324     0.1609E-3  -.9872     0.4564E-3  -.9771   
  4.339     0.1617E-3  -.9872     0.4600E-3  -.9771   
  4.354     0.1626E-3  -.9872     0.4637E-3  -.9770   
  4.369     0.1634E-3  -.9872     0.4674E-3  -.9769   
  4.384     0.1643E-3  -.9871     0.4712E-3  -.9769   
  4.399     0.1651E-3  -.9871     0.4750E-3  -.9768   
  4.414     0.1660E-3  -.9871     0.4789E-3  -.9767   
  4.429     0.1668E-3  -.9871     0.4828E-3  -.9767   
  4.444     0.1677E-3  -.9871     0.4868E-3  -.9766   
  4.459     0.1686E-3  -.9870     0.4908E-3  -.9765   
  4.474     0.1695E-3  -.9870     0.4948E-3  -.9765   
  4.489     0.1704E-3  -.9870     0.4989E-3  -.9764   
  4.505     0.1713E-3  -.9870     0.5031E-3  -.9763   
  4.520     0.1722E-3  -.9870     0.5073E-3  -.9763   
  4.535     0.1731E-3  -.9869     0.5116E-3  -.9762   
  4.550     0.1741E-3  -.9869     0.5159E-3  -.9761   
  4.565     0.1750E-3  -.9869     0.5203E-3  -.9760   
  4.580     0.1759E-3  -.9869     0.5247E-3  -.9760   
  4.595     0.1769E-3  -.9868     0.5292E-3  -.9759   
  4.610     0.1779E-3  -.9868     0.5337E-3  -.9758   
  4.625     0.1788E-3  -.9868     0.5383E-3  -.9758   
  4.640     0.1798E-3  -.9868     0.5430E-3  -.9757   
  4.655     0.1808E-3  -.9868     0.5477E-3  -.9756   
  4.670     0.1818E-3  -.9867     0.5525E-3  -.9755   
  4.685     0.1828E-3  -.9867     0.5574E-3  -.9755   
  4.700     0.1838E-3  -.9867     0.5623E-3  -.9754   
  4.715     0.1848E-3  -.9867     0.5672E-3  -.9753   
  4.730     0.1858E-3  -.9866     0.5723E-3  -.9752   
  4.745     0.1869E-3  -.9866     0.5774E-3  -.9751   
  4.760     0.1879E-3  -.9866     0.5826E-3  -.9751   
  4.775     0.1890E-3  -.9866     0.5879E-3  -.9750   
  4.790     0.1900E-3  -.9866     0.5932E-3  -.9749   
  4.805     0.1911E-3  -.9865     0.5986E-3  -.9748   
  4.820     0.1922E-3  -.9865     0.6040E-3  -.9747   
  4.835     0.1933E-3  -.9865     0.6096E-3  -.9746   
  4.850     0.1944E-3  -.9865     0.6152E-3  -.9746   
  4.865     0.1955E-3  -.9864     0.6209E-3  -.9745   
  4.880     0.1966E-3  -.9864     0.6267E-3  -.9744   
  4.895     0.1978E-3  -.9864     0.6326E-3  -.9743   
  4.910     0.1989E-3  -.9864     0.6385E-3  -.9742   
  4.925     0.2001E-3  -.9863     0.6446E-3  -.9741   
  4.940     0.2012E-3  -.9863     0.6507E-3  -.9740   
  4.955     0.2024E-3  -.9863     0.6569E-3  -.9739   
  4.970     0.2036E-3  -.9863     0.6632E-3  -.9738   
  4.985     0.2048E-3  -.9862     0.6696E-3  -.9737   
  5.000     0.2060E-3  -.9862     0.6761E-3  -.9736   
  5.015     0.2072E-3  -.9862     0.6827E-3  -.9735   
  5.030     0.2085E-3  -.9862     0.6893E-3  -.9735   
  5.045     0.2097E-3  -.9861     0.6961E-3  -.9734   
  5.060     0.2110E-3  -.9861     0.7030E-3  -.9733   
  5.075     0.2122E-3  -.9861     0.7099E-3  -.9732   
  5.090     0.2135E-3  -.9861     0.7170E-3  -.9731   
  5.105     0.2148E-3  -.9860     0.7242E-3  -.9729   
  5.120     0.2161E-3  -.9860     0.7315E-3  -.9728   
  5.135     0.2174E-3  -.9860     0.7389E-3  -.9727   
  5.150     0.2187E-3  -.9859     0.7464E-3  -.9726   
  5.165     0.2201E-3  -.9859     0.7541E-3  -.9725   
  5.180     0.2214E-3  -.9859     0.7618E-3  -.9724   
  5.195     0.2228E-3  -.9859     0.7697E-3  -.9723   
  5.210     0.2242E-3  -.9858     0.7777E-3  -.9722   
  5.225     0.2256E-3  -.9858     0.7858E-3  -.9721   
  5.240     0.2270E-3  -.9858     0.7941E-3  -.9720   
  5.255     0.2284E-3  -.9857     0.8025E-3  -.9719   
  5.270     0.2298E-3  -.9857     0.8110E-3  -.9717   
  5.285     0.2313E-3  -.9857     0.8197E-3  -.9716   
  5.300     0.2328E-3  -.9856     0.8285E-3  -.9715   
  5.315     0.2342E-3  -.9856     0.8374E-3  -.9714   
  5.330     0.2357E-3  -.9856     0.8465E-3  -.9713   
  5.345     0.2372E-3  -.9856     0.8557E-3  -.9712   
  5.360     0.2388E-3  -.9855     0.8651E-3  -.9710   
  5.375     0.2403E-3  -.9855     0.8747E-3  -.9709   
  5.390     0.2419E-3  -.9855     0.8844E-3  -.9708   
  5.405     0.2434E-3  -.9854     0.8942E-3  -.9706   
  5.420     0.2450E-3  -.9854     0.9043E-3  -.9705   
  5.435     0.2466E-3  -.9854     0.9145E-3  -.9704   
  5.450     0.2483E-3  -.9853     0.9249E-3  -.9703   
  5.465     0.2499E-3  -.9853     0.9354E-3  -.9701   
  5.480     0.2515E-3  -.9853     0.9462E-3  -.9700   
  5.495     0.2532E-3  -.9852     0.9571E-3  -.9699   
  5.511     0.2549E-3  -.9852     0.9682E-3  -.9697   
  5.526     0.2566E-3  -.9852     0.9795E-3  -.9696   
  5.541     0.2583E-3  -.9851     0.9910E-3  -.9694   
  5.556     0.2601E-3  -.9851     0.1003E-2  -.9693   
  5.571     0.2619E-3  -.9851     0.1015E-2  -.9691   
  5.586     0.2636E-3  -.9850     0.1027E-2  -.9690   
  5.601     0.2654E-3  -.9850     0.1039E-2  -.9688   
  5.616     0.2673E-3  -.9850     0.1052E-2  -.9687   
  5.631     0.2691E-3  -.9849     0.1065E-2  -.9685   
  5.646     0.2710E-3  -.9849     0.1078E-2  -.9684   
  5.661     0.2728E-3  -.9849     0.1091E-2  -.9682   
  5.676     0.2747E-3  -.9848     0.1104E-2  -.9681   
  5.691     0.2767E-3  -.9848     0.1118E-2  -.9679   
  5.706     0.2786E-3  -.9847     0.1132E-2  -.9677   
  5.721     0.2806E-3  -.9847     0.1147E-2  -.9676   
  5.736     0.2826E-3  -.9847     0.1161E-2  -.9674   
  5.751     0.2846E-3  -.9846     0.1176E-2  -.9672   
  5.766     0.2866E-3  -.9846     0.1191E-2  -.9671   
  5.781     0.2887E-3  -.9846     0.1207E-2  -.9669   
  5.796     0.2907E-3  -.9845     0.1223E-2  -.9667   
  5.811     0.2928E-3  -.9845     0.1239E-2  -.9665   
  5.826     0.2950E-3  -.9844     0.1255E-2  -.9664   
  5.841     0.2971E-3  -.9844     0.1272E-2  -.9662   
  5.856     0.2993E-3  -.9844     0.1289E-2  -.9660   
  5.871     0.3015E-3  -.9843     0.1306E-2  -.9658   
  5.886     0.3037E-3  -.9843     0.1324E-2  -.9656   
  5.901     0.3060E-3  -.9842     0.1342E-2  -.9654   
  5.916     0.3083E-3  -.9842     0.1361E-2  -.9652   
  5.931     0.3106E-3  -.9842     0.1380E-2  -.9650   
  5.946     0.3129E-3  -.9841     0.1399E-2  -.9648   
  5.961     0.3153E-3  -.9841     0.1419E-2  -.9646   
  5.976     0.3177E-3  -.9840     0.1439E-2  -.9644   
  5.991     0.3201E-3  -.9840     0.1460E-2  -.9642   
  6.006     0.3225E-3  -.9839     0.1481E-2  -.9640   
  6.021     0.3250E-3  -.9839     0.1502E-2  -.9638   
  6.036     0.3275E-3  -.9839     0.1524E-2  -.9635   
  6.051     0.3301E-3  -.9838     0.1547E-2  -.9633   
  6.066     0.3326E-3  -.9838     0.1569E-2  -.9631   
  6.081     0.3352E-3  -.9837     0.1593E-2  -.9629   
  6.096     0.3379E-3  -.9837     0.1617E-2  -.9626   
  6.111     0.3405E-3  -.9836     0.1641E-2  -.9624   
  6.126     0.3432E-3  -.9836     0.1667E-2  -.9621   
  6.141     0.3460E-3  -.9835     0.1692E-2  -.9619   
  6.156     0.3488E-3  -.9835     0.1719E-2  -.9616   
  6.171     0.3516E-3  -.9834     0.1746E-2  -.9614   
  6.186     0.3544E-3  -.9834     0.1773E-2  -.9611   
  6.201     0.3573E-3  -.9833     0.1801E-2  -.9609   
  6.216     0.3602E-3  -.9833     0.1830E-2  -.9606   
  6.231     0.3632E-3  -.9832     0.1860E-2  -.9603   
  6.246     0.3662E-3  -.9832     0.1890E-2  -.9601   
  6.261     0.3692E-3  -.9831     0.1921E-2  -.9598   
  6.276     0.3723E-3  -.9831     0.1953E-2  -.9595   
  6.291     0.3754E-3  -.9830     0.1986E-2  -.9592   
  6.306     0.3785E-3  -.9830     0.2019E-2  -.9589   
  6.321     0.3817E-3  -.9829     0.2054E-2  -.9586   
  6.336     0.3850E-3  -.9829     0.2089E-2  -.9583   
  6.351     0.3883E-3  -.9828     0.2125E-2  -.9580   
  6.366     0.3916E-3  -.9828     0.2162E-2  -.9577   
  6.381     0.3950E-3  -.9827     0.2200E-2  -.9574   
  6.396     0.3984E-3  -.9827     0.2239E-2  -.9570   
  6.411     0.4019E-3  -.9826     0.2279E-2  -.9567   
  6.426     0.4054E-3  -.9826     0.2321E-2  -.9564   
  6.441     0.4089E-3  -.9825     0.2363E-2  -.9560   
  6.456     0.4126E-3  -.9824     0.2407E-2  -.9557   
  6.471     0.4162E-3  -.9824     0.2451E-2  -.9553   
  6.486     0.4200E-3  -.9823     0.2498E-2  -.9550   
  6.502     0.4237E-3  -.9823     0.2545E-2  -.9546   
  6.517     0.4276E-3  -.9822     0.2594E-2  -.9542   
  6.532     0.4314E-3  -.9822     0.2644E-2  -.9538   
  6.547     0.4354E-3  -.9821     0.2695E-2  -.9534   
  6.562     0.4394E-3  -.9820     0.2748E-2  -.9530   
  6.577     0.4434E-3  -.9820     0.2803E-2  -.9526   
  6.592     0.4476E-3  -.9819     0.2860E-2  -.9522   
  6.607     0.4517E-3  -.9818     0.2918E-2  -.9518   
  6.622     0.4560E-3  -.9818     0.2978E-2  -.9513   
  6.637     0.4603E-3  -.9817     0.3039E-2  -.9509   
  6.652     0.4646E-3  -.9817     0.3103E-2  -.9504   
  6.667     0.4691E-3  -.9816     0.3169E-2  -.9500   
  6.682     0.4736E-3  -.9815     0.3237E-2  -.9495   
  6.697     0.4782E-3  -.9815     0.3307E-2  -.9490   
  6.712     0.4828E-3  -.9814     0.3379E-2  -.9485   
  6.727     0.4875E-3  -.9813     0.3454E-2  -.9480   
  6.742     0.4923E-3  -.9813     0.3531E-2  -.9475   
  6.757     0.4972E-3  -.9812     0.3611E-2  -.9470   
  6.772     0.5021E-3  -.9811     0.3694E-2  -.9465   
  6.787     0.5071E-3  -.9810     0.3780E-2  -.9459   
  6.802     0.5122E-3  -.9810     0.3868E-2  -.9453   
  6.817     0.5174E-3  -.9809     0.3960E-2  -.9448   
  6.832     0.5227E-3  -.9808     0.4055E-2  -.9442   
  6.847     0.5281E-3  -.9808     0.4154E-2  -.9436   
  6.862     0.5335E-3  -.9807     0.4256E-2  -.9430   
  6.877     0.5390E-3  -.9806     0.4362E-2  -.9423   
  6.892     0.5447E-3  -.9805     0.4472E-2  -.9417   
  6.907     0.5504E-3  -.9804     0.4586E-2  -.9410   
  6.922     0.5562E-3  -.9804     0.4705E-2  -.9403   
  6.937     0.5621E-3  -.9803     0.4828E-2  -.9396   
  6.952     0.5681E-3  -.9802     0.4956E-2  -.9389   
  6.967     0.5742E-3  -.9801     0.5090E-2  -.9382   
  6.982     0.5805E-3  -.9800     0.5229E-2  -.9374   
  6.997     0.5868E-3  -.9800     0.5373E-2  -.9366   
  7.012     0.5933E-3  -.9799     0.5524E-2  -.9358   
  7.027     0.5998E-3  -.9798     0.5681E-2  -.9350   
  7.042     0.6065E-3  -.9797     0.5845E-2  -.9342   
  7.057     0.6133E-3  -.9796     0.6016E-2  -.9333   
  7.072     0.6202E-3  -.9795     0.6195E-2  -.9324   
  7.087     0.6272E-3  -.9794     0.6382E-2  -.9315   
  7.102     0.6344E-3  -.9794     0.6578E-2  -.9305   
  7.117     0.6417E-3  -.9793     0.6782E-2  -.9296   
  7.132     0.6492E-3  -.9792     0.6997E-2  -.9286   
  7.147     0.6567E-3  -.9791     0.7221E-2  -.9275   
  7.162     0.6645E-3  -.9790     0.7457E-2  -.9264   
  7.177     0.6723E-3  -.9789     0.7705E-2  -.9253   
  7.192     0.6804E-3  -.9788     0.7964E-2  -.9242   
  7.207     0.6885E-3  -.9787     0.8238E-2  -.9230   
  7.222     0.6969E-3  -.9786     0.8525E-2  -.9218   
  7.237     0.7054E-3  -.9785     0.8828E-2  -.9205   
  7.252     0.7140E-3  -.9784     0.9147E-2  -.9192   
  7.267     0.7229E-3  -.9783     0.9484E-2  -.9179   
  7.282     0.7319E-3  -.9782     0.9839E-2  -.9165   
  7.297     0.7411E-3  -.9781     0.1022E-1  -.9150   
  7.312     0.7504E-3  -.9780     0.1061E-1  -.9135   
  7.327     0.7600E-3  -.9779     0.1103E-1  -.9120   
  7.342     0.7698E-3  -.9778     0.1148E-1  -.9103   
  7.357     0.7797E-3  -.9777     0.1196E-1  -.9086   
  7.372     0.7899E-3  -.9775     0.1246E-1  -.9069   
  7.387     0.8003E-3  -.9774     0.1300E-1  -.9051   
  7.402     0.8109E-3  -.9773     0.1357E-1  -.9032   
  7.417     0.8217E-3  -.9772     0.1418E-1  -.9012   
  7.432     0.8328E-3  -.9771     0.1483E-1  -.8991   
  7.447     0.8441E-3  -.9770     0.1553E-1  -.8969   
  7.462     0.8557E-3  -.9768     0.1628E-1  -.8947   
  7.477     0.8675E-3  -.9767     0.1708E-1  -.8923   
  7.492     0.8796E-3  -.9766     0.1795E-1  -.8898   
  7.508     0.8920E-3  -.9765     0.1888E-1  -.8872   
  7.523     0.9046E-3  -.9763     0.1988E-1  -.8845   
  7.538     0.9175E-3  -.9762     0.2097E-1  -.8816   
  7.553     0.9307E-3  -.9761     0.2215E-1  -.8786   
  7.568     0.9443E-3  -.9759     0.2342E-1  -.8755   
  7.583     0.9581E-3  -.9758     0.2481E-1  -.8721   
  7.598     0.9723E-3  -.9757     0.2633E-1  -.8686   
  7.613     0.9868E-3  -.9755     0.2799E-1  -.8649   
  7.628     0.1002E-2  -.9754     0.2980E-1  -.8610   
  7.643     0.1017E-2  -.9752     0.3180E-1  -.8568   
  7.658     0.1032E-2  -.9751     0.3400E-1  -.8524   
  7.673     0.1048E-2  -.9749     0.3643E-1  -.8477   
  7.688     0.1065E-2  -.9748     0.3912E-1  -.8427   
  7.703     0.1082E-2  -.9746     0.4212E-1  -.8374   
  7.718     0.1099E-2  -.9745     0.4546E-1  -.8318   
  7.733     0.1117E-2  -.9743     0.4921E-1  -.8258   
  7.748     0.1135E-2  -.9741     0.5343E-1  -.8193   
  7.763     0.1153E-2  -.9740     0.5820E-1  -.8125   
  7.778     0.1172E-2  -.9738     0.6360E-1  -.8051   
  7.793     0.1192E-2  -.9736     0.6977E-1  -.7973   
  7.808     0.1212E-2  -.9735     0.7683E-1  -.7889   
  7.823     0.1233E-2  -.9733     0.8496E-1  -.7799   
  7.838     0.1254E-2  -.9731     0.9438E-1  -.7703   
  7.853     0.1276E-2  -.9729     0.1053     -.7602   
  7.868     0.1299E-2  -.9727     0.1182     -.7494   
  7.883     0.1322E-2  -.9725     0.1333     -.7382   
  7.898     0.1346E-2  -.9723     0.1511     -.7267   
  7.913     0.1370E-2  -.9721     0.1724     -.7151   
  7.928     0.1395E-2  -.9719     0.1977     -.7040   
  7.943     0.1421E-2  -.9717     0.2280     -.6939   
  7.958     0.1448E-2  -.9715     0.2640     -.6862   
  7.973     0.1476E-2  -.9713     0.3066     -.6825   
  7.988     0.1504E-2  -.9711     0.3558     -.6852   
  8.003     0.1533E-2  -.9709     0.4113     -.6980   
  8.018     0.1564E-2  -.9707     0.4706     -.7250   
  8.033     0.1595E-2  -.9704     0.5292     -.7703   
  8.048     0.1627E-2  -.9702     0.5799     -.8357   
  8.063     0.1661E-2  -.9700     0.6134     -.9186   
  8.078     0.1695E-2  -.9697     0.6221     -1.011   
  8.093     0.1730E-2  -.9695     0.6037     -1.101   
  8.108     0.1767E-2  -.9692     0.5626     -1.178   
  8.123     0.1805E-2  -.9689     0.5074     -1.236   
  8.138     0.1845E-2  -.9687     0.4472     -1.275   
  8.153     0.1885E-2  -.9684     0.3886     -1.296   
  8.168     0.1928E-2  -.9681     0.3352     -1.305   
  8.183     0.1971E-2  -.9678     0.2886     -1.305   
  8.198     0.2017E-2  -.9676     0.2488     -1.299   
  8.213     0.2064E-2  -.9673     0.2153     -1.290   
  8.228     0.2113E-2  -.9670     0.1872     -1.280   
  8.243     0.2163E-2  -.9666     0.1636     -1.268   
  8.258     0.2216E-2  -.9663     0.1438     -1.257   
  8.273     0.2271E-2  -.9660     0.1271     -1.245   
  8.288     0.2328E-2  -.9657     0.1130     -1.234   
  8.303     0.2387E-2  -.9653     0.1009     -1.223   
  8.318     0.2449E-2  -.9650     0.9062E-1  -1.213   
  8.333     0.2513E-2  -.9646     0.8173E-1  -1.204   
  8.348     0.2580E-2  -.9642     0.7404E-1  -1.195   
  8.363     0.2650E-2  -.9639     0.6735E-1  -1.187   
  8.378     0.2723E-2  -.9635     0.6150E-1  -1.179   
  8.393     0.2799E-2  -.9631     0.5635E-1  -1.172   
  8.408     0.2879E-2  -.9626     0.5181E-1  -1.166   
  8.423     0.2962E-2  -.9622     0.4778E-1  -1.159   
  8.438     0.3050E-2  -.9618     0.4420E-1  -1.153   
  8.453     0.3141E-2  -.9613     0.4100E-1  -1.148   
  8.468     0.3237E-2  -.9609     0.3812E-1  -1.143   
  8.483     0.3338E-2  -.9604     0.3554E-1  -1.138   
  8.498     0.3443E-2  -.9599     0.3321E-1  -1.133   
  8.514     0.3554E-2  -.9594     0.3109E-1  -1.129   
  8.529     0.3671E-2  -.9589     0.2917E-1  -1.125   
  8.544     0.3794E-2  -.9583     0.2742E-1  -1.121   
  8.559     0.3924E-2  -.9578     0.2583E-1  -1.117   
  8.574     0.4061E-2  -.9572     0.2436E-1  -1.114   
  8.589     0.4206E-2  -.9566     0.2302E-1  -1.111   
  8.604     0.4359E-2  -.9560     0.2179E-1  -1.107   
  8.619     0.4521E-2  -.9553     0.2065E-1  -1.105   
  8.634     0.4693E-2  -.9547     0.1960E-1  -1.102   
  8.649     0.4875E-2  -.9540     0.1863E-1  -1.099   
  8.664     0.5069E-2  -.9533     0.1773E-1  -1.096   
  8.679     0.5275E-2  -.9525     0.1689E-1  -1.094   
  8.694     0.5494E-2  -.9518     0.1612E-1  -1.092   
  8.709     0.5728E-2  -.9510     0.1539E-1  -1.089   
  8.724     0.5979E-2  -.9501     0.1472E-1  -1.087   
  8.739     0.6246E-2  -.9493     0.1408E-1  -1.085   
  8.754     0.6534E-2  -.9484     0.1349E-1  -1.083   
  8.769     0.6842E-2  -.9474     0.1294E-1  -1.081   
  8.784     0.7173E-2  -.9464     0.1242E-1  -1.079   
  8.799     0.7531E-2  -.9454     0.1193E-1  -1.078   
  8.814     0.7917E-2  -.9443     0.1147E-1  -1.076   
  8.829     0.8334E-2  -.9432     0.1104E-1  -1.074   
  8.844     0.8787E-2  -.9420     0.1064E-1  -1.073   
    8.8589     0.0093    -0.9407     0.0103    -1.0714
    8.8739     0.0098    -0.9394     0.0099    -1.0699
    8.8889     0.0104    -0.9380     0.0095    -1.0685
    8.9039     0.0110    -0.9366     0.0092    -1.0671
  8.919     0.1174E-1  -.9350     0.8918E-2  -1.066   
  8.934     0.1252E-1  -.9334     0.8628E-2  -1.065   
  8.949     0.1337E-1  -.9316     0.8353E-2  -1.063   
  8.964     0.1432E-1  -.9298     0.8093E-2  -1.062   
  8.979     0.1537E-1  -.9279     0.7845E-2  -1.061   
  8.994     0.1655E-1  -.9258     0.7611E-2  -1.060   
  9.009     0.1787E-1  -.9236     0.7388E-2  -1.059   
  9.024     0.1935E-1  -.9213     0.7176E-2  -1.058   
  9.039     0.2102E-1  -.9188     0.6975E-2  -1.057   
  9.054     0.2292E-1  -.9161     0.6783E-2  -1.056   
  9.069     0.2508E-1  -.9133     0.6601E-2  -1.055   
  9.084     0.2756E-1  -.9102     0.6428E-2  -1.054   
  9.099     0.3042E-1  -.9070     0.6263E-2  -1.053   
  9.114     0.3372E-1  -.9036     0.6106E-2  -1.052   
  9.129     0.3757E-1  -.8999     0.5957E-2  -1.051   
  9.144     0.4208E-1  -.8961     0.5815E-2  -1.050   
  9.159     0.4739E-1  -.8921     0.5680E-2  -1.049   
  9.174     0.5366E-1  -.8880     0.5552E-2  -1.048   
  9.189     0.6112E-1  -.8839     0.5431E-2  -1.048   
  9.204     0.7002E-1  -.8801     0.5315E-2  -1.047   
  9.219     0.8063E-1  -.8766     0.5206E-2  -1.046   
  9.234     0.9324E-1  -.8741     0.5103E-2  -1.045   
  9.249     0.1081     -.8732     0.5005E-2  -1.045   
  9.264     0.1253     -.8748     0.4912E-2  -1.044   
  9.279     0.1446     -.8800     0.4826E-2  -1.043   
  9.294     0.1649     -.8904     0.4744E-2  -1.042   
  9.309     0.1845     -.9069     0.4668E-2  -1.042   
  9.324     0.2005     -.9301     0.4598E-2  -1.041   
  9.339     0.2099     -.9585     0.4532E-2  -1.040   
  9.354     0.2104     -.9892     0.4472E-2  -1.040   
  9.369     0.2021     -1.018     0.4418E-2  -1.039   
  9.384     0.1868     -1.043     0.4369E-2  -1.038   
  9.399     0.1676     -1.060     0.4326E-2  -1.038   
  9.414     0.1474     -1.071     0.4288E-2  -1.037   
  9.429     0.1281     -1.077     0.4257E-2  -1.037   
  9.444     0.1108     -1.079     0.4233E-2  -1.036   
  9.459     0.9582E-1  -1.078     0.4215E-2  -1.035   
  9.474     0.8308E-1  -1.076     0.4205E-2  -1.035   
  9.489     0.7238E-1  -1.072     0.4203E-2  -1.034   
  9.505     0.6343E-1  -1.068     0.4209E-2  -1.033   
  9.520     0.5595E-1  -1.064     0.4225E-2  -1.033   
  9.535     0.4969E-1  -1.060     0.4251E-2  -1.032   
  9.550     0.4442E-1  -1.055     0.4290E-2  -1.032   
  9.565     0.3999E-1  -1.051     0.4341E-2  -1.031   
  9.580     0.3623E-1  -1.047     0.4408E-2  -1.030   
  9.595     0.3304E-1  -1.043     0.4491E-2  -1.030   
  9.610     0.3032E-1  -1.040     0.4595E-2  -1.029   
  9.625     0.2800E-1  -1.037     0.4721E-2  -1.029   
  9.640     0.2602E-1  -1.033     0.4874E-2  -1.028   
  9.655     0.2432E-1  -1.030     0.5059E-2  -1.027   
  9.670     0.2287E-1  -1.027     0.5282E-2  -1.027   
  9.685     0.2163E-1  -1.024     0.5549E-2  -1.026   
  9.700     0.2058E-1  -1.022     0.5870E-2  -1.025   
  9.715     0.1971E-1  -1.019     0.6256E-2  -1.025   
  9.730     0.1898E-1  -1.017     0.6722E-2  -1.024   
  9.745     0.1840E-1  -1.014     0.7283E-2  -1.023   
  9.760     0.1794E-1  -1.012     0.7959E-2  -1.023   
  9.775     0.1761E-1  -1.009     0.8775E-2  -1.022   
  9.790     0.1740E-1  -1.007     0.9753E-2  -1.021   
   9.80480    0.01731   -1.00464    0.01092   -1.02089
   9.81982    0.01735   -1.00235    0.01228   -1.02065
   9.83484    0.01751   -1.00006    0.01382   -1.02070
   9.84985    0.01780   -0.99777    0.01548   -1.02116
   9.86487    0.01824   -0.99546    0.01712   -1.02212
   9.87988    0.01884   -0.99312    0.01853   -1.02365
   9.89489    0.01963   -0.99075    0.01944   -1.02566
   9.90991    0.02062   -0.98834    0.01964   -1.02791
   9.92492    0.02185   -0.98588    0.01908   -1.03010
   9.93994    0.02336   -0.98338    0.01789   -1.03194
   9.95496    0.02522   -0.98084    0.01631   -1.03325
   9.96997    0.02747   -0.97828    0.01459   -1.03402
   9.98499    0.03021   -0.97573    0.01292   -1.03433
  10.00000    0.03353   -0.97325    0.01141   -1.03428
  10.01502    0.03755   -0.97093    0.01009   -1.03399
  10.03     0.4239E-1  -.9689     0.8957E-2  -1.034   
  10.05     0.4817E-1  -.9675     0.8004E-2  -1.033   
  10.06     0.5497E-1  -.9670     0.7205E-2  -1.032   
  10.08     0.6275E-1  -.9678     0.6534E-2  -1.032   
  10.09     0.7125E-1  -.9707     0.5970E-2  -1.031   
  10.11     0.7988E-1  -.9760     0.5495E-2  -1.031   
  10.12     0.8759E-1  -.9842     0.5092E-2  -1.030   
  10.14     0.9305E-1  -.9950     0.4750E-2  -1.029   
  10.15     0.9504E-1  -1.007     0.4458E-2  -1.029   
  10.17     0.9306E-1  -1.020     0.4208E-2  -1.028   
  10.18     0.8758E-1  -1.031     0.3993E-2  -1.028   
  10.20     0.7978E-1  -1.040     0.3808E-2  -1.027   
  10.21     0.7100E-1  -1.045     0.3649E-2  -1.027   
  10.23     0.6229E-1  -1.048     0.3511E-2  -1.026   
  10.24     0.5427E-1  -1.049     0.3393E-2  -1.026   
  10.26     0.4721E-1  -1.049     0.3291E-2  -1.025   
  10.27     0.4116E-1  -1.048     0.3205E-2  -1.025   
  10.29     0.3605E-1  -1.046     0.3132E-2  -1.024   
  10.30     0.3176E-1  -1.044     0.3072E-2  -1.024   
  10.32     0.2816E-1  -1.042     0.3023E-2  -1.024   
  10.33     0.2514E-1  -1.040     0.2985E-2  -1.023   
  10.35     0.2260E-1  -1.038     0.2957E-2  -1.023   
  10.36     0.2045E-1  -1.035     0.2940E-2  -1.022   
  10.38     0.1862E-1  -1.033     0.2932E-2  -1.022   
  10.39     0.1706E-1  -1.031     0.2935E-2  -1.022   
  10.41     0.1573E-1  -1.030     0.2948E-2  -1.021   
  10.42     0.1458E-1  -1.028     0.2972E-2  -1.021   
  10.44     0.1358E-1  -1.026     0.3007E-2  -1.020   
  10.45     0.1272E-1  -1.024     0.3055E-2  -1.020   
  10.47     0.1197E-1  -1.023     0.3115E-2  -1.019   
  10.48     0.1131E-1  -1.021     0.3191E-2  -1.019   
  10.50     0.1074E-1  -1.020     0.3283E-2  -1.019   
  10.51     0.1024E-1  -1.018     0.3394E-2  -1.018   
  10.53     0.9803E-2  -1.017     0.3527E-2  -1.018   
  10.54     0.9423E-2  -1.016     0.3684E-2  -1.017   
  10.56     0.9094E-2  -1.014     0.3870E-2  -1.017   
  10.57     0.8809E-2  -1.013     0.4089E-2  -1.016   
  10.59     0.8565E-2  -1.012     0.4349E-2  -1.016   
  10.60     0.8358E-2  -1.011     0.4657E-2  -1.015   
  10.62     0.8185E-2  -1.010     0.5022E-2  -1.015   
  10.63     0.8045E-2  -1.009     0.5456E-2  -1.014   
  10.65     0.7936E-2  -1.007     0.5974E-2  -1.014   
  10.66     0.7856E-2  -1.006     0.6593E-2  -1.013   
  10.68     0.7805E-2  -1.005     0.7336E-2  -1.012   
  10.69     0.7783E-2  -1.004     0.8227E-2  -1.012   
  10.71     0.7788E-2  -1.003     0.9294E-2  -1.011   
  10.72     0.7822E-2  -1.002     0.1056E-1  -1.011   
  10.74     0.7885E-2  -1.001     0.1205E-1  -1.011   
  10.75     0.7979E-2  -.9997     0.1375E-1  -1.011   
  10.77     0.8106E-2  -.9986     0.1561E-1  -1.012   
  10.78     0.8267E-2  -.9975     0.1750E-1  -1.013   
  10.80     0.8465E-2  -.9963     0.1921E-1  -1.015   
  10.81     0.8704E-2  -.9952     0.2043E-1  -1.017   
  10.83     0.8989E-2  -.9940     0.2091E-1  -1.020   
  10.84     0.9324E-2  -.9927     0.2052E-1  -1.022   
  10.86     0.9717E-2  -.9915     0.1936E-1  -1.025   
  10.87     0.1017E-1  -.9901     0.1768E-1  -1.026   
  10.89     0.1071E-1  -.9888     0.1577E-1  -1.028   
  10.90090    0.01132   -0.98738    0.01388   -1.02829
  10.91592    0.01204   -0.98592    0.01213   -1.02851
  10.93     0.1288E-1  -.9844     0.1059E-1  -1.028   
  10.95     0.1386E-1  -.9828     0.9271E-2  -1.028   
  10.96     0.1500E-1  -.9812     0.8155E-2  -1.028   
  10.98     0.1635E-1  -.9795     0.7219E-2  -1.027   
  10.99     0.1794E-1  -.9777     0.6434E-2  -1.027   
  11.01     0.1982E-1  -.9759     0.5775E-2  -1.026   
  11.02     0.2205E-1  -.9740     0.5221E-2  -1.026   
  11.04     0.2472E-1  -.9722     0.4753E-2  -1.025   
  11.05     0.2791E-1  -.9704     0.4355E-2  -1.025   
  11.07     0.3172E-1  -.9688     0.4016E-2  -1.024   
  11.08     0.3625E-1  -.9676     0.3726E-2  -1.024   
  11.10     0.4159E-1  -.9670     0.3476E-2  -1.023   
  11.11     0.4775E-1  -.9673     0.3261E-2  -1.023   
  11.13     0.5461E-1  -.9690     0.3074E-2  -1.022   
  11.14     0.6181E-1  -.9725     0.2913E-2  -1.022   
  11.16     0.6864E-1  -.9783     0.2774E-2  -1.022   
  11.17     0.7408E-1  -.9864     0.2653E-2  -1.021   
  11.19     0.7704E-1  -.9962     0.2549E-2  -1.021   
  11.20     0.7684E-1  -1.007     0.2459E-2  -1.021   
  11.22     0.7354E-1  -1.016     0.2383E-2  -1.020   
  11.23     0.6792E-1  -1.024     0.2320E-2  -1.020   
  11.25     0.6107E-1  -1.030     0.2268E-2  -1.020   
  11.26     0.5398E-1  -1.033     0.2227E-2  -1.019   
  11.28     0.4730E-1  -1.034     0.2196E-2  -1.019   
  11.29     0.4134E-1  -1.034     0.2176E-2  -1.019   
  11.31     0.3621E-1  -1.034     0.2167E-2  -1.018   
  11.32     0.3188E-1  -1.032     0.2168E-2  -1.018   
  11.34     0.2826E-1  -1.030     0.2182E-2  -1.018   
  11.35     0.2526E-1  -1.029     0.2207E-2  -1.018   
  11.37     0.2277E-1  -1.027     0.2247E-2  -1.017   
  11.38     0.2071E-1  -1.025     0.2303E-2  -1.017   
  11.40     0.1900E-1  -1.023     0.2377E-2  -1.017   
  11.41     0.1759E-1  -1.021     0.2471E-2  -1.016   
  11.43     0.1643E-1  -1.019     0.2590E-2  -1.016   
  11.44     0.1548E-1  -1.017     0.2738E-2  -1.016   
  11.46     0.1471E-1  -1.015     0.2921E-2  -1.016   
  11.47     0.1410E-1  -1.013     0.3146E-2  -1.015   
  11.49     0.1362E-1  -1.012     0.3420E-2  -1.015   
  11.50     0.1327E-1  -1.010     0.3755E-2  -1.015   
  11.52     0.1303E-1  -1.008     0.4158E-2  -1.014   
  11.53     0.1290E-1  -1.007     0.4637E-2  -1.014   
  11.55     0.1287E-1  -1.005     0.5195E-2  -1.014   
  11.56     0.1294E-1  -1.003     0.5820E-2  -1.014   
  11.58     0.1312E-1  -1.002     0.6478E-2  -1.015   
  11.59     0.1340E-1  -.9998     0.7104E-2  -1.015   
  11.61     0.1380E-1  -.9981     0.7603E-2  -1.016   
  11.62     0.1433E-1  -.9963     0.7871E-2  -1.016   
  11.64     0.1499E-1  -.9945     0.7842E-2  -1.017   
  11.65     0.1582E-1  -.9927     0.7519E-2  -1.018   
  11.67     0.1682E-1  -.9908     0.6975E-2  -1.019   
  11.68     0.1804E-1  -.9888     0.6313E-2  -1.019   
  11.70     0.1951E-1  -.9868     0.5626E-2  -1.020   
  11.71     0.2128E-1  -.9847     0.4976E-2  -1.020   
  11.73     0.2341E-1  -.9826     0.4395E-2  -1.020   
  11.74     0.2598E-1  -.9805     0.3891E-2  -1.019   
  11.76     0.2907E-1  -.9785     0.3463E-2  -1.019   
  11.77     0.3278E-1  -.9765     0.3102E-2  -1.019   
  11.79     0.3724E-1  -.9749     0.2799E-2  -1.019   
  11.80     0.4255E-1  -.9737     0.2544E-2  -1.018   
  11.82     0.4879E-1  -.9734     0.2329E-2  -1.018   
  11.83     0.5593E-1  -.9742     0.2147E-2  -1.018   
  11.85     0.6375E-1  -.9768     0.1992E-2  -1.018   
  11.86     0.7172E-1  -.9817     0.1859E-2  -1.018   
  11.88     0.7891E-1  -.9892     0.1746E-2  -1.017   
  11.89     0.8411E-1  -.9991     0.1647E-2  -1.017   
  11.91     0.8619E-1  -1.011     0.1562E-2  -1.017   
  11.92     0.8464E-1  -1.022     0.1488E-2  -1.017   
  11.94     0.7984E-1  -1.033     0.1424E-2  -1.016   
  11.95     0.7285E-1  -1.041     0.1368E-2  -1.016   
  11.97     0.6491E-1  -1.046     0.1319E-2  -1.016   
  11.98     0.5698E-1  -1.049     0.1276E-2  -1.016   
  12.00     0.4968E-1  -1.050     0.1239E-2  -1.016   
  12.01     0.4324E-1  -1.050     0.1207E-2  -1.016   
  12.03     0.3774E-1  -1.049     0.1180E-2  -1.015   
  12.04     0.3310E-1  -1.047     0.1157E-2  -1.015   
  12.06     0.2922E-1  -1.046     0.1137E-2  -1.015   
  12.07     0.2598E-1  -1.044     0.1122E-2  -1.015   
  12.09     0.2329E-1  -1.042     0.1111E-2  -1.015   
  12.10     0.2104E-1  -1.040     0.1103E-2  -1.015   
  12.12     0.1916E-1  -1.038     0.1099E-2  -1.014   
  12.13     0.1758E-1  -1.036     0.1100E-2  -1.014   
  12.15     0.1627E-1  -1.034     0.1104E-2  -1.014   
  12.16     0.1517E-1  -1.032     0.1113E-2  -1.014   
  12.18     0.1426E-1  -1.030     0.1127E-2  -1.014   
  12.19     0.1350E-1  -1.029     0.1147E-2  -1.014   
  12.21     0.1289E-1  -1.027     0.1173E-2  -1.014   
  12.22     0.1240E-1  -1.025     0.1207E-2  -1.013   
  12.24     0.1203E-1  -1.024     0.1250E-2  -1.013   
  12.25     0.1176E-1  -1.022     0.1303E-2  -1.013   
  12.27     0.1159E-1  -1.021     0.1368E-2  -1.013   
  12.28     0.1153E-1  -1.019     0.1449E-2  -1.013   
  12.30     0.1156E-1  -1.018     0.1547E-2  -1.013   
  12.31     0.1170E-1  -1.016     0.1667E-2  -1.013   
  12.33     0.1195E-1  -1.015     0.1812E-2  -1.012   
  12.34     0.1233E-1  -1.014     0.1988E-2  -1.012   
  12.36     0.1284E-1  -1.012     0.2196E-2  -1.012   
  12.37     0.1352E-1  -1.011     0.2440E-2  -1.012   
  12.39     0.1437E-1  -1.009     0.2715E-2  -1.012   
  12.40     0.1544E-1  -1.008     0.3006E-2  -1.012   
  12.42     0.1677E-1  -1.006     0.3289E-2  -1.012   
  12.43     0.1841E-1  -1.005     0.3520E-2  -1.013   
  12.45     0.2041E-1  -1.003     0.3656E-2  -1.013   
  12.46     0.2284E-1  -1.002     0.3661E-2  -1.013   
  12.48     0.2575E-1  -1.001     0.3535E-2  -1.014   
  12.49     0.2919E-1  -1.001     0.3304E-2  -1.014   
  12.51     0.3312E-1  -1.001     0.3015E-2  -1.014   
  12.52     0.3741E-1  -1.003     0.2710E-2  -1.014   
  12.54     0.4173E-1  -1.006     0.2418E-2  -1.014   
  12.55     0.4555E-1  -1.010     0.2156E-2  -1.014   
  12.57     0.4816E-1  -1.015     0.1928E-2  -1.014   
  12.58     0.4899E-1  -1.022     0.1734E-2  -1.014   
  12.60     0.4780E-1  -1.028     0.1570E-2  -1.014   
  12.61     0.4487E-1  -1.033     0.1433E-2  -1.014   
  12.63     0.4082E-1  -1.037     0.1317E-2  -1.014   
  12.64     0.3632E-1  -1.040     0.1219E-2  -1.013   
  12.66     0.3189E-1  -1.041     0.1137E-2  -1.013   
  12.67     0.2783E-1  -1.042     0.1067E-2  -1.013   
  12.69     0.2426E-1  -1.042     0.1007E-2  -1.013   
  12.70     0.2120E-1  -1.041     0.9553E-3  -1.013   
  12.72     0.1862E-1  -1.040     0.9109E-3  -1.013   
  12.73     0.1645E-1  -1.039     0.8725E-3  -1.013   
  12.75     0.1463E-1  -1.038     0.8391E-3  -1.013   
  12.76     0.1310E-1  -1.036     0.8100E-3  -1.012   
  12.78     0.1180E-1  -1.035     0.7846E-3  -1.012   
  12.79     0.1070E-1  -1.034     0.7625E-3  -1.012   
  12.81     0.9768E-2  -1.033     0.7431E-3  -1.012   
  12.82     0.8966E-2  -1.032     0.7262E-3  -1.012   
  12.84     0.8275E-2  -1.031     0.7115E-3  -1.012   
  12.85     0.7677E-2  -1.030     0.6988E-3  -1.012   
  12.87     0.7157E-2  -1.029     0.6879E-3  -1.012   
  12.88     0.6704E-2  -1.028     0.6787E-3  -1.012   
  12.90     0.6307E-2  -1.028     0.6710E-3  -1.012   
  12.91     0.5958E-2  -1.027     0.6648E-3  -1.011   
  12.93     0.5651E-2  -1.026     0.6600E-3  -1.011   
  12.94     0.5380E-2  -1.025     0.6566E-3  -1.011   
  12.96     0.5141E-2  -1.025     0.6546E-3  -1.011   
  12.97     0.4931E-2  -1.024     0.6539E-3  -1.011   
  12.99     0.4746E-2  -1.023     0.6547E-3  -1.011   
  13.00     0.4583E-2  -1.023     0.6569E-3  -1.011   
  13.02     0.4442E-2  -1.022     0.6607E-3  -1.011   
  13.03     0.4319E-2  -1.021     0.6661E-3  -1.011   
  13.05     0.4215E-2  -1.021     0.6732E-3  -1.011   
  13.06     0.4127E-2  -1.020     0.6824E-3  -1.011   
  13.08     0.4054E-2  -1.020     0.6936E-3  -1.010   
  13.09     0.3994E-2  -1.019     0.7073E-3  -1.010   
  13.11     0.3946E-2  -1.019     0.7236E-3  -1.010   
  13.12     0.3905E-2  -1.018     0.7427E-3  -1.010   
  13.14     0.3869E-2  -1.018     0.7647E-3  -1.010   
  13.15     0.3836E-2  -1.017     0.7898E-3  -1.010   
  13.17     0.3807E-2  -1.017     0.8176E-3  -1.010   
  13.18     0.3783E-2  -1.016     0.8480E-3  -1.010   
  13.20     0.3768E-2  -1.016     0.8809E-3  -1.010   
  13.21     0.3764E-2  -1.015     0.9166E-3  -1.010   
  13.23     0.3772E-2  -1.015     0.9564E-3  -1.009   
  13.24     0.3795E-2  -1.014     0.1002E-2  -1.009   
  13.26     0.3834E-2  -1.014     0.1055E-2  -1.009   
  13.27     0.3888E-2  -1.013     0.1119E-2  -1.009   
  13.29     0.3960E-2  -1.013     0.1196E-2  -1.009   
  13.30     0.4051E-2  -1.012     0.1288E-2  -1.009   
  13.32     0.4163E-2  -1.012     0.1398E-2  -1.009   
  13.33     0.4297E-2  -1.011     0.1531E-2  -1.009   
  13.35     0.4458E-2  -1.011     0.1692E-2  -1.008   
  13.36     0.4648E-2  -1.010     0.1884E-2  -1.008   
  13.38     0.4872E-2  -1.010     0.2115E-2  -1.008   
  13.39     0.5135E-2  -1.009     0.2390E-2  -1.008   
  13.41     0.5445E-2  -1.008     0.2711E-2  -1.008   
  13.42     0.5808E-2  -1.008     0.3077E-2  -1.008   
  13.44     0.6237E-2  -1.007     0.3475E-2  -1.008   
  13.45     0.6743E-2  -1.006     0.3876E-2  -1.008   
  13.47     0.7342E-2  -1.006     0.4231E-2  -1.009   
  13.48     0.8055E-2  -1.005     0.4478E-2  -1.009   
  13.50     0.8905E-2  -1.004     0.4562E-2  -1.010   
  13.51     0.9921E-2  -1.004     0.4461E-2  -1.010   
  13.53     0.1114E-1  -1.003     0.4201E-2  -1.011   
  13.54     0.1260E-1  -1.002     0.3838E-2  -1.011   
  13.56     0.1433E-1  -1.002     0.3432E-2  -1.011   
  13.57     0.1638E-1  -1.001     0.3033E-2  -1.012   
  13.59     0.1875E-1  -1.002     0.2667E-2  -1.012   
  13.60     0.2138E-1  -1.002     0.2346E-2  -1.012   
  13.62     0.2415E-1  -1.004     0.2071E-2  -1.011   
  13.63     0.2679E-1  -1.006     0.1839E-2  -1.011   
  13.65     0.2889E-1  -1.009     0.1645E-2  -1.011   
  13.66     0.3004E-1  -1.013     0.1483E-2  -1.011   
  13.68     0.2996E-1  -1.017     0.1347E-2  -1.011   
  13.69     0.2868E-1  -1.021     0.1233E-2  -1.011   
  13.71     0.2650E-1  -1.024     0.1136E-2  -1.011   
  13.72     0.2383E-1  -1.026     0.1055E-2  -1.011   
  13.74     0.2106E-1  -1.027     0.9856E-3  -1.011   
  13.75     0.1844E-1  -1.028     0.9265E-3  -1.010   
  13.77     0.1611E-1  -1.028     0.8760E-3  -1.010   
  13.78     0.1409E-1  -1.027     0.8328E-3  -1.010   
  13.80     0.1238E-1  -1.027     0.7957E-3  -1.010   
  13.81     0.1095E-1  -1.026     0.7639E-3  -1.010   
  13.83     0.9760E-2  -1.026     0.7368E-3  -1.010   
  13.84     0.8767E-2  -1.025     0.7136E-3  -1.010   
  13.86     0.7941E-2  -1.024     0.6940E-3  -1.010   
  13.87     0.7252E-2  -1.024     0.6777E-3  -1.010   
  13.89     0.6680E-2  -1.023     0.6643E-3  -1.010   
  13.90     0.6206E-2  -1.022     0.6536E-3  -1.009   
  13.92     0.5814E-2  -1.022     0.6454E-3  -1.009   
  13.93     0.5492E-2  -1.021     0.6397E-3  -1.009   
  13.95     0.5229E-2  -1.021     0.6364E-3  -1.009   
  13.96     0.5014E-2  -1.020     0.6354E-3  -1.009   
  13.98     0.4831E-2  -1.020     0.6367E-3  -1.009   
  13.99     0.4667E-2  -1.019     0.6403E-3  -1.009   
  14.01     0.4506E-2  -1.019     0.6459E-3  -1.009   
  14.02     0.4338E-2  -1.019     0.6535E-3  -1.009   
  14.04     0.4162E-2  -1.018     0.6626E-3  -1.009   
  14.05     0.3982E-2  -1.018     0.6730E-3  -1.009   
  14.07     0.3806E-2  -1.018     0.6845E-3  -1.008   
  14.08     0.3643E-2  -1.017     0.6975E-3  -1.008   
  14.10     0.3495E-2  -1.017     0.7124E-3  -1.008   
  14.11     0.3366E-2  -1.017     0.7301E-3  -1.008   
  14.13     0.3255E-2  -1.016     0.7513E-3  -1.008   
  14.14     0.3161E-2  -1.016     0.7769E-3  -1.008   
  14.16     0.3082E-2  -1.016     0.8073E-3  -1.008   
  14.17     0.3016E-2  -1.015     0.8436E-3  -1.008   
  14.19     0.2962E-2  -1.015     0.8864E-3  -1.008   
  14.20     0.2919E-2  -1.015     0.9370E-3  -1.008   
  14.22     0.2886E-2  -1.015     0.9965E-3  -1.007   
  14.23     0.2861E-2  -1.014     0.1067E-2  -1.007   
  14.25     0.2845E-2  -1.014     0.1149E-2  -1.007   
  14.26     0.2837E-2  -1.014     0.1247E-2  -1.007   
  14.28     0.2836E-2  -1.013     0.1363E-2  -1.007   
  14.29     0.2841E-2  -1.013     0.1500E-2  -1.007   
  14.31     0.2854E-2  -1.013     0.1665E-2  -1.007   
  14.32     0.2873E-2  -1.013     0.1862E-2  -1.007   
  14.34     0.2899E-2  -1.012     0.2097E-2  -1.006   
  14.35     0.2932E-2  -1.012     0.2379E-2  -1.006   
  14.37     0.2972E-2  -1.012     0.2714E-2  -1.006   
  14.38     0.3018E-2  -1.011     0.3108E-2  -1.006   
  14.40     0.3072E-2  -1.011     0.3558E-2  -1.006   
  14.41     0.3134E-2  -1.011     0.4053E-2  -1.006   
  14.43     0.3203E-2  -1.011     0.4559E-2  -1.007   
  14.44     0.3281E-2  -1.010     0.5021E-2  -1.007   
  14.46     0.3368E-2  -1.010     0.5362E-2  -1.008   
  14.47     0.3465E-2  -1.010     0.5508E-2  -1.009   
  14.49     0.3572E-2  -1.009     0.5424E-2  -1.009   
  14.50     0.3691E-2  -1.009     0.5129E-2  -1.010   
  14.52     0.3822E-2  -1.009     0.4690E-2  -1.010   
  14.53     0.3967E-2  -1.009     0.4184E-2  -1.011   
  14.55     0.4127E-2  -1.008     0.3677E-2  -1.011   
  14.56     0.4303E-2  -1.008     0.3206E-2  -1.011   
  14.58     0.4498E-2  -1.008     0.2790E-2  -1.011   
  14.59     0.4714E-2  -1.007     0.2433E-2  -1.011   
  14.61     0.4954E-2  -1.007     0.2131E-2  -1.011   
  14.62     0.5219E-2  -1.007     0.1877E-2  -1.011   
  14.64     0.5514E-2  -1.006     0.1664E-2  -1.011   
  14.65     0.5843E-2  -1.006     0.1485E-2  -1.011   
  14.67     0.6210E-2  -1.005     0.1334E-2  -1.010   
  14.68     0.6622E-2  -1.005     0.1206E-2  -1.010   
  14.70     0.7084E-2  -1.005     0.1097E-2  -1.010   
  14.71     0.7606E-2  -1.004     0.1003E-2  -1.010   
  14.73     0.8196E-2  -1.004     0.9227E-3  -1.010   
  14.74     0.8867E-2  -1.003     0.8530E-3  -1.010   
  14.76     0.9633E-2  -1.003     0.7923E-3  -1.010   
  14.77     0.1051E-1  -1.002     0.7392E-3  -1.010   
  14.79     0.1152E-1  -1.002     0.6924E-3  -1.010   
  14.80     0.1269E-1  -1.001     0.6510E-3  -1.010   
  14.82     0.1406E-1  -1.001     0.6143E-3  -1.009   
  14.83     0.1566E-1  -1.001     0.5815E-3  -1.009   
  14.85     0.1754E-1  -1.000     0.5521E-3  -1.009   
  14.86     0.1977E-1  -1.000     0.5257E-3  -1.009   
  14.88     0.2244E-1  -1.000     0.5018E-3  -1.009   
  14.89     0.2563E-1  -1.001     0.4802E-3  -1.009   
  14.91     0.2948E-1  -1.002     0.4606E-3  -1.009   
  14.92     0.3414E-1  -1.004     0.4427E-3  -1.009   
  14.94     0.3980E-1  -1.007     0.4263E-3  -1.009   
  14.95     0.4668E-1  -1.013     0.4112E-3  -1.009   
  14.97     0.5515E-1  -1.025     0.3972E-3  -1.009   
  14.98     0.6665E-1  -1.059     0.3804E-3  -1.009   
  15.00     0.8433E-3  -1.071     0.5294E-5  -1.009   
# 
# YAMBO@aiken x 001 CPUs * 12/30/2011  11:58 [start]
#                          12/30/2011  11:58 [end]
# 
# Cpu Timing [Min/Max/Average]: 06s/06s/06s
#
# .-Input file : Inputs/04_alda_r_space
# | optics                       # [R OPT] Optics
# | bse                          # [R BSK] Bethe Salpeter Equation.
# | bss                          # [R BSS] Bethe Salpeter Equation solver
# | alda_fxc                     # [R TDDFT] The ALDA TDDFT kernel
# | FFTGvecs=  9987        RL    # [FFT] Plane-waves
# | NonPDirs= "XYZ"              # [X/BSS] Non periodic chartesian directions (X,Y,Z,XY...)
# | BSresKmod= "x"               # [BSK] Resonant Kernel mode. (`x`;`c`;`d`)
# | BScplKmod= "none"            # [BSK] Coupling Kernel mode. (`x`;`c`;`d`;`u`)
# | % BSEBands
# |    1 | 200 |                 # [BSK] Bands range
# | %
# | BSENGexx=  9045        RL    # [BSK] Exchange components
# | BSSmod= "d"                  # [BSS] Solvers `h/d/i/t`
# | % BEnRange
# |   0.00000 | 15.00000 | eV    # [BSS] Energy range
# | %
# | % BDmRange
# |   0.10000 |  0.10000 | eV    # [BSS] Damping range
# | %
# | BEnSteps= 1000               # [BSS] Energy steps
# | % BLongDir
# | 0.1000E-4 | 0.000    | 0.000    |        # [BSS] [cc] Electric Field
# | %
