#                                                           
#  **    **    **     ****     ****  ******     *******     
# //**  **    ****   /**/**   **/** /*////**   **/////**    
#  //****    **//**  /**//** ** /** /*   /**  **     //**   
#   //**    **  //** /** //***  /** /******  /**      /**   
#    /**   **********/**  //*   /** /*//// **/**      /**   
#    /**  /**//////**/**   /    /** /*    /**//**     **    
#    /**  /**     /**/**        /** /*******  //*******     
#    //   //      // //         //  ///////    ///////      
#                                                           
#               Version 4.0.0 Revision 3740                 
#                        MPI Build                          
#                http://www.yambo-code.org                  
#
# Absorption @ Q(1) [q->0 direction] : 0.000    0.1000E-4  0.000   
#
#
# - Energies      are Slater exchange(X)+Perdew & Zunger(C)
# - Wavefunctions are Slater exchange(X)+Perdew & Zunger(C)
#
# - The Green`s function is resonant -
# - Using the Length Gauge -
# - [r,Vnl] *is* included -
#
#   BSK|Identifier              :5188
#      |Dimension               :192
#      |Bands                   :23 - 27
#      |Exchange           [res]: yes
#      |Correlation        [res]: no
#      |Kernel`s coupling       : no
#      |Exchange           [cpl]: no
#      |W interaction is bare   : no
#      |Correlation        [cpl]: no
#      |ALDA kernel in R-space  : yes
#      |RL vectors    [exchange]:995
#      |E/h energy range    [ev]:-1.000000 - -1.000000
#      |Coupling range     [o/o]: 100.0000 -  100.0000
#  
#   Haydock|Accuracy (requested) [o/o]:   0.0100
#          |Accuracy (reached)   [o/o]:   0.0077
#          |Iteration                 :17
#
#  E/ev[1]    eps /Im[2] eps /Re[3] eps0/Im[4] eps0/Re[5] eps`/Im[6] eps`/Re[7]
#
   0.00000    1.03250   15.97553    1.17083   16.99908    1.03250   15.97553
 0.5017E-2   1.065      16.15      1.210      17.19      1.065      16.15   
 0.1003E-1   1.100      16.32      1.250      17.39      1.100      16.32   
 0.1505E-1   1.135      16.50      1.293      17.60      1.135      16.50   
   0.02007    1.17251   16.68732    1.33691   17.80709    1.17251   16.68732
   0.02508    1.21113   16.87612    1.38295   18.02210    1.21113   16.87612
   0.03010    1.25135   17.06956    1.43101   18.24271    1.25135   17.06956
   0.03512    1.29325   17.26783    1.48119   18.46914    1.29325   17.26783
   0.04013    1.33693   17.47111    1.53362   18.70163    1.33693   17.47111
   0.04515    1.38249   17.67958    1.58842   18.94042    1.38249   17.67958
   0.05017    1.43003   17.89347    1.64575   19.18576    1.43003   17.89347
   0.05518    1.47967   18.11296    1.70575   19.43792    1.47967   18.11296
   0.06020    1.53152   18.33828    1.76859   19.69719    1.53152   18.33828
   0.06522    1.58572   18.56966    1.83443   19.96387    1.58572   18.56966
   0.07023    1.64240   18.80736    1.90347   20.23827    1.64240   18.80736
   0.07525    1.70171   19.05163    1.97592   20.52073    1.70171   19.05163
   0.08027    1.76381   19.30273    2.05198   20.81161    1.76381   19.30273
   0.08528    1.82888   19.56097    2.13190   21.11127    1.82888   19.56097
   0.09030    1.89709   19.82663    2.21593   21.42011    1.89709   19.82663
   0.09532    1.96866   20.10005    2.30435   21.73855    1.96866   20.10005
   0.10033    2.04379   20.38156    2.39745   22.06703    2.04379   20.38156
   0.10535    2.12271   20.67151    2.49558   22.40603    2.12271   20.67151
   0.11037    2.20569   20.97029    2.59907   22.75604    2.20569   20.97029
   0.11538    2.29298   21.27830    2.70833   23.11760    2.29298   21.27830
   0.12040    2.38490   21.59596    2.82376   23.49127    2.38490   21.59596
   0.12542    2.48175   21.92372    2.94582   23.87764    2.48175   21.92372
   0.13043    2.58390   22.26207    3.07502   24.27736    2.58390   22.26207
   0.13545    2.69171   22.61149    3.21191   24.69110    2.69171   22.61149
   0.14047    2.80561   22.97253    3.35709   25.11958    2.80561   22.97253
   0.14548    2.92604   23.34578    3.51121   25.56358    2.92604   23.34578
   0.15050    3.05350   23.73182    3.67501   26.02391    3.05350   23.73182
   0.15552    3.18854   24.13131    3.84929   26.50146    3.18854   24.13131
   0.16054    3.33174   24.54494    4.03492   26.99716    3.33174   24.54494
   0.16555    3.48376   24.97344    4.23288   27.51199    3.48376   24.97344
   0.17057    3.64532   25.41758    4.44425   28.04703    3.64532   25.41758
   0.17559    3.81720   25.87821    4.67023   28.60343    3.81720   25.87821
   0.18060    4.00028   26.35621    4.91215   29.18238    4.00028   26.35621
   0.18562    4.19553   26.85252    5.17150   29.78521    4.19553   26.85252
   0.19064    4.40400   27.36816    5.44992   30.41330    4.40400   27.36816
   0.19565    4.62689   27.90420    5.74927   31.06811    4.62689   27.90420
   0.20067    4.86552   28.46179    6.07162   31.75126    4.86552   28.46179
   0.20569    5.12136   29.04216    6.41930   32.46442    5.12136   29.04216
   0.21070    5.39604   29.64662    6.79492   33.20938    5.39604   29.64662
   0.21572    5.69141   30.27655    7.20145   33.98808    5.69141   30.27655
   0.22074    6.00952   30.93344    7.64224   34.80251    6.00952   30.93344
   0.22575    6.35269   31.61886    8.12107   35.65483    6.35269   31.61886
   0.23077    6.72353   32.33447    8.64226   36.54729    6.72353   32.33447
   0.23579    7.12498   33.08205    9.21071   37.48223    7.12498   33.08205
   0.24080    7.56037   33.86344    9.83205   38.46210    7.56037   33.86344
   0.24582    8.03351   34.68059   10.51269   39.48938    8.03351   34.68059
   0.25084    8.54868   35.53552   11.26003   40.56661    8.54868   35.53552
   0.25585    9.11079   36.43032   12.08253   41.69625    9.11079   36.43032
   0.26087    9.72546   37.36710   12.99001   42.88066    9.72546   37.36710
   0.26589   10.39911   38.34798   13.99378   44.12201   10.39911   38.34798
   0.27090   11.13912   39.37504   15.10695   45.42196   11.13912   39.37504
   0.27592   11.95398   40.45019   16.34470   46.78164   11.95398   40.45020
   0.28094   12.85348   41.57511   17.72470   48.20117   12.85348   41.57511
   0.28595   13.84891   42.75108   19.26739   49.67927   13.84891   42.75108
   0.29097   14.95330   43.97873   20.99652   51.21272   14.95330   43.97873
   0.29599   16.18172   45.25784   22.93955   52.79542   16.18172   45.25784
   0.30100   17.55154   46.58680   25.12807   54.41732   17.55154   46.58680
   0.30602   19.08277   47.96217   27.59822   56.06292   19.08277   47.96217
   0.31104   20.79828   49.37789   30.39079   57.70929   20.79828   49.37789
   0.31605   22.72412   50.82432   33.55099   59.32344   22.72412   50.82432
   0.32107   24.88950   52.28693   37.12750   60.85906   24.88950   52.28693
   0.32609   27.32661   53.74469   41.17037   62.25245   27.32661   53.74469
   0.33110   30.06996   55.16808   45.72705   63.41811   30.06996   55.16808
   0.33612   33.15488   56.51674   50.83574   64.24421   33.15488   56.51674
   0.34114   36.61498   57.73705   56.51540   64.58931   36.61497   57.73705
   0.34615   40.47815   58.76011   62.75154   64.28253   40.47817   58.76012
   0.35117   44.76080   59.50085   69.47890   63.12991   44.76081   59.50087
   0.35619   49.46059   59.85956   76.56373   60.93098   49.46063   59.85958
   0.36120   54.54946   59.72717   83.79222   57.50702   54.54952   59.72718
   0.36622   59.96836   58.99480   90.87363   52.73868   59.96841   58.99479
   0.37124   65.62788   57.56607   97.46529   46.60289   65.62793   57.56604
    0.3763    71.4166    55.3680   103.2184    39.1929    71.4167    55.3679
    0.3813    77.2156    52.3532   107.8284    30.7093    77.2156    52.3532
    0.3863    82.9089    48.4910   111.0695    21.4257    82.9090    48.4909
    0.3913    88.3827    43.7493   112.7990    11.6487    88.3827    43.7491
    0.3963    93.5039    38.0842   112.9438     1.6963    93.5037    38.0840
    0.4013    98.0897    31.4512   111.4921    -8.1025    98.0895    31.4510
    0.4064   101.8876    23.8454   108.5056   -17.4079   101.8873    23.8453
    0.4114   104.5881    15.3579   104.1402   -25.8893   104.5878    15.3580
    0.4164   105.8800     6.2213    98.6518   -33.2682   105.8797     6.2215
    0.4214   105.5333    -3.1861    92.3711   -39.3634   105.5331    -3.1859
    0.4264   103.4774   -12.3919    85.6534   -44.1142   103.4773   -12.3916
   0.43144   99.83475  -20.92005   78.82674  -47.57260   99.83479  -20.91966
   0.43645   94.89652  -28.38621   72.15540  -49.87228   94.89663  -28.38591
   0.44147   89.05248  -34.55726   65.82607  -51.19065   89.05265  -34.55702
   0.44649   82.70897  -39.36195   59.95201  -51.71595   82.70917  -39.36177
   0.45151   76.22467  -42.86141   54.58715  -51.62497   76.22491  -42.86129
   0.45652   69.87633  -45.20222   49.74252  -51.07154   69.87658  -45.20218
   0.46154   63.85276  -46.57035   45.40168  -50.18252   63.85302  -46.57036
   0.46656   58.26516  -47.15709   41.53199  -49.05874   58.26542  -47.15713
   0.47157   53.16523  -47.13821   38.09315  -47.77807   53.16544  -47.13829
   0.47659   48.56322  -46.66444   35.04258  -46.39943   48.56341  -46.66454
   0.48161   44.44334  -45.85899   32.33869  -44.96656   44.44349  -45.85912
   0.48662   40.77491  -44.81936   29.94267  -43.51148   40.77504  -44.81951
   0.49164   37.52021  -43.62081   27.81935  -42.05717   37.52030  -43.62097
   0.49666   34.63971  -42.32045   25.93756  -40.61995   34.63978  -42.32061
   0.50167   32.09471  -40.96082   24.26996  -39.21114   32.09476  -40.96100
   0.50669   29.84937  -39.57345   22.79286  -37.83836   29.84941  -39.57364
   0.51171   27.87128  -38.18123   21.48593  -36.50667   27.87127  -38.18142
   0.51672   26.13178  -36.80084   20.33179  -35.21931   26.13176  -36.80103
   0.52174   24.60596  -35.44419   19.31575  -33.97828   24.60592  -35.44438
   0.52676   23.27241  -34.11996   18.42541  -32.78489   23.27236  -34.12016
   0.53177   22.11292  -32.83451   17.65043  -31.64011   22.11284  -32.83470
   0.53679   21.11214  -31.59271   16.98219  -30.54490   21.11204  -31.59290
   0.54181   20.25723  -30.39864   16.41354  -29.50055   20.25711  -30.39882
   0.54682   19.53752  -29.25613   15.93853  -28.50886   19.53736  -29.25629
   0.55184   18.94407  -28.16928   15.55203  -27.57251   18.94388  -28.16943
   0.55686   18.46932  -27.14284   15.24941  -26.69518   18.46911  -27.14297
   0.56187   18.10653  -26.18261   15.02608  -25.88180   18.10629  -26.18273
   0.56689   17.84925  -25.29578   14.87686  -25.13864   17.84898  -25.29587
   0.57191   17.69048  -24.49111   14.79534  -24.47325   17.69017  -24.49116
   0.57692   17.62190  -23.77889   14.77304  -23.89422   17.62156  -23.77890
   0.58194   17.63270  -23.17083   14.79860  -23.41051   17.63235  -23.17078
   0.58696   17.70866  -22.67914   14.85700  -23.03040   17.70830  -22.67904
   0.59197   17.83091  -22.31549   14.92927  -22.75989   17.83055  -22.31531
   0.59699   17.97554  -22.08890   14.99274  -22.60073   17.97520  -22.08865
   0.60201   18.11367  -22.00340   15.02245  -22.54845   18.11336  -22.00307
   0.60702   18.21293  -22.05532   14.99354  -22.59083   18.21268  -22.05492
   0.61204   18.24039  -22.23120   14.88458  -22.70770   18.24021  -22.23074
   0.61706   18.16657  -22.50706   14.68090  -22.87232   18.16650  -22.50656
   0.62207   17.96999  -22.84974   14.37714  -23.05451   17.97001  -22.84922
   0.62709   17.64065  -23.22049   13.97791  -23.22468   17.64078  -23.21998
   0.63211   17.18168  -23.58010   13.49651  -23.35764   17.18191  -23.57962
   0.63712   16.60811  -23.89396   12.95209  -23.43529   16.60842  -23.89355
   0.64214   15.94364  -24.13615   12.36625  -23.44750   15.94401  -24.13581
   0.64716   15.21620  -24.29098   11.75994  -23.39152   15.21662  -24.29072
   0.65217   14.45383  -24.35275   11.15136  -23.27033   14.45426  -24.35256
   0.65719   13.68151  -24.32380   10.55486  -23.09068   13.68195  -24.32369
   0.66221   12.91946  -24.21211    9.98082  -22.86132   12.91989  -24.21208
   0.66722   12.18269  -24.02877    9.43596  -22.59157   12.18310  -24.02880
   0.67224   11.48124  -23.78605    8.92406  -22.29038   11.48163  -23.78612
   0.67726   10.82108  -23.49602    8.44662  -21.96583   10.82143  -23.49614
   0.68227   10.20496  -23.16973    8.00360  -21.62486   10.20528  -23.16989
   0.68729    9.63334  -22.81683    7.59384  -21.27325    9.63363  -22.81701
   0.69231    9.10513  -22.44543    7.21560  -20.91569    9.10539  -22.44562
   0.69732    8.61824  -22.06214    6.86674  -20.55587    8.61847  -22.06235
   0.70234    8.17006  -21.67229    6.54503  -20.19670    8.17025  -21.67252
   0.70736    7.75766  -21.28005    6.24819  -19.84039    7.75784  -21.28029
   0.71237    7.37814  -20.88866    5.97406  -19.48858    7.37829  -20.88891
   0.71739    7.02862  -20.50057    5.72057  -19.14249    7.02874  -20.50082
   0.72241    6.70639  -20.11760    5.48584  -18.80298    6.70649  -20.11786
   0.72742    6.40892  -19.74110    5.26813  -18.47065    6.40900  -19.74136
   0.73244    6.13390  -19.37201    5.06587  -18.14587    6.13396  -19.37228
   0.73746    5.87924  -19.01098    4.87765  -17.82885    5.87928  -19.01125
   0.74247    5.64303  -18.65841    4.70218  -17.51970    5.64305  -18.65868
   0.74749    5.42357  -18.31454    4.53833  -17.21840    5.42357  -18.31481
   0.75251    5.21932  -17.97945    4.38507  -16.92487    5.21930  -17.97972
   0.75753    5.02891  -17.65313    4.24148  -16.63900    5.02888  -17.65340
   0.76254    4.85111  -17.33548    4.10675  -16.36063    4.85106  -17.33575
   0.76756    4.68484  -17.02637    3.98015  -16.08956    4.68477  -17.02664
   0.77258    4.52910  -16.72559    3.86100  -15.82558    4.52901  -16.72585
   0.77759    4.38301  -16.43293    3.74873  -15.56848    4.38290  -16.43320
   0.78261    4.24579  -16.14815    3.64281  -15.31803    4.24566  -16.14841
   0.78763    4.11674  -15.87099    3.54274  -15.07401    4.11658  -15.87126
   0.79264    3.99521  -15.60121    3.44812  -14.83618    3.99503  -15.60147
   0.79766    3.88063  -15.33854    3.35854  -14.60432    3.88042  -15.33879
   0.80268    3.77249  -15.08272    3.27367  -14.37821    3.77226  -15.08297
   0.80769    3.67034  -14.83350    3.19317  -14.15765    3.67008  -14.83374
   0.81271    3.57374  -14.59062    3.11678  -13.94241    3.57345  -14.59085
   0.81773    3.48232  -14.35384    3.04422  -13.73228    3.48200  -14.35405
   0.82274    3.39574  -14.12293    2.97527  -13.52709    3.39539  -14.12312
   0.82776    3.31368  -13.89764    2.90971  -13.32663    3.31330  -13.89781
   0.83278    3.23588  -13.67776    2.84734  -13.13072    3.23547  -13.67790
   0.83779    3.16206  -13.46307    2.78800  -12.93919    3.16162  -13.46317
   0.84281    3.09201  -13.25337    2.73152  -12.75186    3.09154  -13.25343
   0.84783    3.02550  -13.04846    2.67776  -12.56859    3.02501  -13.04847
   0.85284    2.96235  -12.84813    2.62659  -12.38919    2.96184  -12.84809
   0.85786    2.90239  -12.65221    2.57788  -12.21354    2.90187  -12.65212
   0.86288    2.84546  -12.46052    2.53154  -12.04147    2.84493  -12.46037
   0.86789    2.79141  -12.27289    2.48747  -11.87287    2.79088  -12.27268
   0.87291    2.74013  -12.08915    2.44558  -11.70759    2.73961  -12.08888
   0.87793    2.69149  -11.90915    2.40580  -11.54549    2.69099  -11.90881
   0.88294    2.64540  -11.73273    2.36806  -11.38648    2.64493  -11.73233
   0.88796    2.60177  -11.55974    2.33229  -11.23041    2.60133  -11.55929
   0.89298    2.56052  -11.39006    2.29846  -11.07720    2.56011  -11.38955
   0.89799    2.52158  -11.22354    2.26652  -10.92672    2.52122  -11.22298
   0.90301    2.48489  -11.06006    2.23643  -10.77887    2.48458  -11.05946
   0.90803    2.45041  -10.89950    2.20817  -10.63356    2.45015  -10.89886
   0.91304    2.41810  -10.74173    2.18173  -10.49069    2.41790  -10.74107
   0.91806    2.38793  -10.58667    2.15708  -10.35019    2.38778  -10.58598
   0.92308    2.35988  -10.43420    2.13423  -10.21196    2.35978  -10.43348
   0.92809    2.33393  -10.28422    2.11318  -10.07593    2.33390  -10.28348
   0.93311    2.31009  -10.13664    2.09395   -9.94204    2.31012  -10.13589
  0.938127   2.288362  -9.991375   2.076560  -9.810211   2.288446  -9.990613
  0.943144   2.268763  -9.848348   2.061037  -9.680392   2.268909  -9.847575
  0.948161   2.251322  -9.707487   2.047422  -9.552538   2.251530  -9.706708
  0.953177   2.236073  -9.568727   2.035765  -9.426609   2.236346  -9.567943
  0.958194   2.223067  -9.432014   2.026124  -9.302571   2.223407  -9.431226
  0.963211   2.212361  -9.297300   2.018568  -9.180409   2.212771  -9.296514
  0.968227   2.204027  -9.164555   2.013175  -9.060122   2.204509  -9.163771
  0.973244   2.198148  -9.033755   2.010033  -8.941717   2.198705  -9.032976
  0.978261   2.194816  -8.904895   2.009243  -8.825226   2.195454  -8.904125
  0.983278   2.194140  -8.777983   2.010911  -8.710697   2.194864  -8.777227
  0.988294   2.196240  -8.653057   2.015154  -8.598209   2.197054  -8.652321
  0.993311   2.201248  -8.530165   2.022095  -8.487870   2.202157  -8.529456
  0.998328   2.209305  -8.409394   2.031862  -8.379814   2.210315  -8.408719
  1.003345   2.220565  -8.290854   2.044585  -8.274218   2.221684  -8.290224
  1.008361   2.235190  -8.174703   2.060388  -8.171304   2.236423  -8.174126
  1.013378   2.253345  -8.061128   2.079388  -8.071339   2.254699  -8.060619
  1.018395   2.275196  -7.950376   2.101678  -7.974653   2.276676  -7.949954
  1.023411   2.300901  -7.842751   2.127323  -7.881630   2.302512  -7.842431
  1.028428   2.330605  -7.738614   2.156342  -7.792723   2.332351  -7.738421
  1.033445   2.364424  -7.638403   2.188688  -7.708445   2.366305  -7.638363
  1.038462   2.402431  -7.542629   2.224232  -7.629375   2.404446  -7.542771
  1.043478   2.444638  -7.451889   2.262731  -7.556146   2.446779  -7.452244
  1.048495   2.490973  -7.366855   2.303807  -7.489426   2.493229  -7.367460
  1.053512   2.541245  -7.288280   2.346915  -7.429899   2.543595  -7.289179
  1.058529   2.595123  -7.216986   2.391325  -7.378227   2.597539  -7.218218
  1.063545   2.652094  -7.153831   2.436098  -7.334991   2.654534  -7.155438
  1.068562   2.711433  -7.099689   2.480090  -7.300639   2.713843  -7.101711
  1.073579   2.772168  -7.055387   2.521961  -7.275415   2.774482  -7.057859
  1.078595   2.833069  -7.021651   2.560224  -7.259288   2.835205  -7.024596
  1.083612   2.892642  -6.999020   2.593304  -7.251878   2.894504  -7.002444
  1.088629   2.949153  -6.987755   2.619640  -7.252430   2.950637  -6.991647
  1.093645   3.000691  -6.987754   2.637804  -7.259785   3.001686  -6.992076
  1.098662   3.045256  -6.998471   2.646617  -7.272428   3.045652  -7.003157
  1.103679   3.080882  -7.018869   2.645270  -7.288548   3.080582  -7.023822
  1.108696   3.105799  -7.047411   2.633395  -7.306171   3.104724  -7.052506
  1.113712   3.118579  -7.082111   2.611109  -7.323284   3.116679  -7.087202
  1.118729   3.118272  -7.120638   2.578997  -7.337989   3.115534  -7.125566
  1.123746   3.104506  -7.160471   2.538048  -7.348635   3.100956  -7.165072
  1.128763   3.077523  -7.199075   2.489552  -7.353896   3.073223  -7.203199
  1.133779   3.038143  -7.234090   2.434974  -7.352839   3.033188  -7.237604
  1.138796   2.987675  -7.263475   2.375847  -7.344912   2.982189  -7.266274
  1.143813   2.927791  -7.285625   2.313659  -7.329918   2.921910  -7.287639
  1.148829   2.860368  -7.299418   2.249778  -7.307964   2.854235  -7.300608
  1.153846   2.787342  -7.304218   2.185400  -7.279389   2.781095  -7.304575
  1.158863   2.710582  -7.299829   2.121527  -7.244694   2.704350  -7.299372
  1.163880   2.631800  -7.286421   2.058964  -7.204476   2.625695  -7.285191
  1.168896   2.552484  -7.264448   1.998320  -7.159387   2.546601  -7.262498
  1.173913   2.473876  -7.234559   1.940043  -7.110078   2.468295  -7.231951
  1.178930   2.396972  -7.197521   1.884434  -7.057185   2.391753  -7.194324
  1.183947   2.322528  -7.154157   1.831678  -7.001296   2.317717  -7.150435
  1.188963   2.251100  -7.105293   1.781869  -6.942950   2.246728  -7.101114
  1.193980   2.183058  -7.051726   1.735027  -6.882630   2.179149  -7.047153
  1.198997   2.118632  -6.994201   1.691118  -6.820755   2.115200  -6.989285
  1.204013   2.057938  -6.933392   1.650074  -6.757697   2.054991  -6.928188
  1.209030   2.000999  -6.869905   1.611801  -6.693769   1.998543  -6.864459
  1.214047   1.947781  -6.804276   1.576188  -6.629240   1.945815  -6.798627
  1.219064   1.898197  -6.736966   1.543117  -6.564339   1.896722  -6.731150
  1.224080   1.852131  -6.668374   1.512468  -6.499258   1.851147  -6.662423
  1.229097   1.809450  -6.598840   1.484123  -6.434156   1.808956  -6.592782
  1.234114   1.770010  -6.528654   1.457964  -6.369174   1.770007  -6.522517
  1.239130   1.733662  -6.458060   1.433886  -6.304417   1.734154  -6.451868
  1.244147   1.700264  -6.387262   1.411785  -6.239984   1.701253  -6.381039
  1.249164   1.669673  -6.316435   1.391569  -6.175956   1.671168  -6.310202
  1.254181   1.641759  -6.245719   1.373151  -6.112398   1.643767  -6.239500
  1.259197   1.616401  -6.175241   1.356455  -6.049372   1.618932  -6.169057
  1.264214   1.593486  -6.105100   1.341411  -5.986930   1.596554  -6.098979
  1.269231   1.572914  -6.035385   1.327956  -5.925120   1.576534  -6.029356
  1.274248   1.554595  -5.966173   1.316034  -5.863990   1.558785  -5.960267
  1.279264   1.538451  -5.897532   1.305597  -5.803579   1.543230  -5.891782
  1.284281   1.524414  -5.829525   1.296597  -5.743934   1.529802  -5.823971
  1.289298   1.512426  -5.762209   1.288993  -5.685099   1.518444  -5.756898
  1.294314   1.502437  -5.695643   1.282746  -5.627126   1.509108  -5.690629
  1.299331   1.494407  -5.629887   1.277817  -5.570065   1.501751  -5.625233
  1.304348   1.488301  -5.565004   1.274168  -5.513973   1.496338  -5.560778
  1.309365   1.484091  -5.501061   1.271755  -5.458907   1.492838  -5.497345
  1.314381   1.481752  -5.438136   1.270535  -5.404933   1.491219  -5.435021
  1.319398   1.481262  -5.376310   1.270455  -5.352122   1.491453  -5.373901
  1.324415   1.482596  -5.315680   1.271457  -5.300547   1.493504  -5.314094
  1.329432   1.485729  -5.256352   1.273469  -5.250281   1.497333  -5.255722
  1.334448   1.490627  -5.198446   1.276412  -5.201403   1.502889  -5.198914
  1.339465   1.497247  -5.142094   1.280190  -5.153989   1.510105  -5.143816
  1.344482   1.505530  -5.087441   1.284689  -5.108112   1.518895  -5.090586
  1.349498   1.515398  -5.034647   1.289781  -5.063841   1.529148  -5.039386
  1.354515   1.526748  -4.983878   1.295317  -5.021231   1.540721  -4.990386
  1.359532   1.539446  -4.935310   1.301128  -4.980320   1.553435  -4.943754
  1.364548   1.553323  -4.889116   1.307027  -4.941131   1.567074  -4.899648
  1.369565   1.568167  -4.845466   1.312811  -4.903652   1.581374  -4.858209
  1.374582   1.583726  -4.804512   1.318267  -4.867837   1.596032  -4.819546
  1.379599   1.599699  -4.766376   1.323175  -4.833603   1.610701  -4.783723
  1.384615   1.615743  -4.731143   1.327324  -4.800818   1.625003  -4.750751
  1.389632   1.631477  -4.698841   1.330519  -4.769305   1.638534  -4.720567
  1.394649   1.646493  -4.669430   1.332597  -4.738848   1.650882  -4.693029
  1.399666   1.660368  -4.642791   1.333435  -4.709186   1.661653  -4.667912
  1.404682   1.672687  -4.618716   1.332963  -4.680040   1.670484  -4.644897
  1.409699   1.683063  -4.596907   1.331171  -4.651113   1.677070  -4.623590
  1.414716   1.691162  -4.576981   1.328106  -4.622110   1.681188  -4.603531
  1.419732   1.696725  -4.558483   1.323878  -4.592760   1.682711  -4.584214
  1.424749   1.699588  -4.540901   1.318645  -4.562815   1.681620  -4.565112
  1.429766   1.699696  -4.523697   1.312607  -4.532073   1.678002  -4.545708
  1.434783   1.697105  -4.506329   1.305992  -4.500378   1.672051  -4.525517
  1.439799   1.691980  -4.488284   1.299044  -4.467625   1.664044  -4.504115
  1.444816   1.684582  -4.469100   1.292008  -4.433756   1.654332  -4.481150
  1.449833   1.675250  -4.448388   1.285127  -4.398759   1.643310  -4.456357
  1.454850   1.664381  -4.425842   1.278626  -4.362659   1.631396  -4.429554
  1.459866   1.652402  -4.401249   1.272712  -4.325514   1.619015  -4.400650
  1.464883   1.639752  -4.374481   1.267572  -4.287404   1.606575  -4.369624
  1.469900   1.626859  -4.345493   1.263365  -4.248428   1.594459  -4.336522
  1.474916   1.614130  -4.314312   1.260233  -4.208698   1.583014  -4.301445
  1.479933   1.601937  -4.281023   1.258294  -4.168332   1.572548  -4.264530
  1.484950   1.590612  -4.245755   1.257648  -4.127450   1.563328  -4.225944
  1.489967   1.580446  -4.208674   1.258382  -4.086180   1.555582  -4.185874
  1.494983   1.571688  -4.169965   1.260567  -4.044641   1.549502  -4.144516
  1.500000   1.564549  -4.129829   1.264265  -4.002964   1.545247  -4.102073
# 
# 09/21/2014 at 14:52 YAMBO @ PC_amd [start]
# 09/21/2014 at 14:52                [end]
#  
# Timing   [Min/Max/Average]: 04s/04s/04s
#
# .-Input file : yambo.in
# | optics                       # [R OPT] Optics
# | bse                          # [R BSE] Bethe Salpeter Equation.
# | bss                          # [R BSS] Bethe Salpeter Equation solver
# | tddft                        # [R   K] Use TDDFT kernel
# | BoseTemp= 0.000000     eV    # Bosonic Temperature
# | FFTGvecs=  995         RL    # [FFT] Plane-waves
# | BS_CPU= ""                   # [PARALLEL] CPUs for each role
# | BS_ROLEs= ""                 # [PARALLEL] CPUs roles (k,eh,t)
# | BS_nCPU_invert= 1            # [PARALLEL] CPUs for matrix inversion
# | BS_nCPU_diago= 1             # [PARALLEL] CPUs for matrix diagonalization
# | NonPDirs= "X"                # [X/BSS] Non periodic chartesian directions (X,Y,Z,XY...)
# | BSEmod= "resonant"           # [BSE] resonant/causal/coupling
# | BSKmod= "ALDA"               # [BSE] IP/Hartree/HF/ALDA/SEX/BSfxc
# | BSSmod= "hd"                 # [BSS] (h)aydock/(d)iagonalization/(i)nversion/(t)ddft`
# | % BEnRange
# |  0.000000 | 1.500000 | eV    # [BSS] Energy range
# | %
# | % BDmRange
# |   0.03000 |  0.10000 | eV    # [BSS] Damping range
# | %
# | BEnSteps= 300                # [BSS] Energy steps
# | % BLongDir
# |  0.000    |0.1000E-4 | 0.000    |        # [BSS] [cc] Electric Field
# | %
# | % BSEBands
# |  23 | 27 |                   # [BSK] Bands range
# | %
# | BSHayTrs=   0.0100           # [BSS] [o/o] Haydock treshold. Strict(>0)/Average(<0)
