#                                                           
# ooooo   oooo ..     ooo        ooo ooooooooo.    .oooo.   
#  `88.   .8" .88.    `88.       .88 `88"   `Y8b  dP"  `Yb  
#   `88. .8" .8"88.    888b     d"88  88     888 88      88 
#    `88.8" .8" `88.   8 Y88. .P  88  88oooo888" 88      88 
#     `88" .88ooo888.  8  `888"   88  88    `88b 88      88 
#      88 .8"     `88. 8    Y     88  88    .88P `8b    d8" 
#     o88o88o      888o8          88 o88bood8P"   `Ybod8P"  
#                                                           
#              GPL Version 3.2.4 Revision 941               
#                 http://www.yambo-code.org                 
#
# EELS @ Q(1)  [q->0 direction]:0.1000E-4  0.000     0.000   
#
#
# - Energies      are Teter Parametrization(93) (xc)+Scissor
# - Wavefunctions are Teter Parametrization(93) (xc)
#
# - The Green`s function is resonant -
# - Using Shifted Grids -
# - [r,Vnl] *is* included -
#
#   BSK|Identifier              :9938
#      |Dimension               :199
#      |Bands                   :1 - 200
#      |Exchange           [res]: yes
#      |Correlation        [res]: no
#      |Kernel`s coupling       : no
#      |Exchange           [cpl]: no
#      |W interaction is bare   : no
#      |Correlation        [cpl]: no
#      |ALDA kernel in R-space  : no
#      |RL vectors    [exchange]:9045
#      |E/h energy range    [ev]:-1.000000 - -1.000000
#      |Coupling range     [o/o]: 100.0000 -  100.0000
#
#  E/ev[1]    eel /Im[2] eel /Re[3] eel0/Im[4] eel0/Re[5]
#
  0.00      0.669E-11  -.997      -.247E-10  -.991    
 0.2002E-1  0.1556E-4  -.9968     0.2686E-4  -.9914   
 0.4004E-1  0.1574E-4  -.9968     0.2718E-4  -.9914   
 0.6006E-1  0.1578E-4  -.9968     0.2727E-4  -.9915   
 0.8008E-1  0.1582E-4  -.9968     0.2735E-4  -.9915   
 0.1001     0.1585E-4  -.9968     0.2742E-4  -.9915   
 0.1201     0.1589E-4  -.9968     0.2750E-4  -.9915   
 0.1401     0.1592E-4  -.9968     0.2757E-4  -.9915   
 0.1602     0.1595E-4  -.9968     0.2764E-4  -.9915   
 0.1802     0.1599E-4  -.9968     0.2771E-4  -.9915   
 0.2002     0.1602E-4  -.9968     0.2779E-4  -.9915   
 0.2202     0.1605E-4  -.9968     0.2786E-4  -.9915   
 0.2402     0.1608E-4  -.9968     0.2793E-4  -.9915   
 0.2603     0.1612E-4  -.9968     0.2800E-4  -.9915   
 0.2803     0.1615E-4  -.9968     0.2808E-4  -.9915   
 0.3003     0.1618E-4  -.9968     0.2815E-4  -.9915   
 0.3203     0.1621E-4  -.9969     0.2822E-4  -.9915   
 0.3403     0.1625E-4  -.9969     0.2830E-4  -.9915   
 0.3604     0.1628E-4  -.9969     0.2837E-4  -.9915   
 0.3804     0.1631E-4  -.9969     0.2845E-4  -.9915   
 0.4004     0.1635E-4  -.9969     0.2852E-4  -.9915   
 0.4204     0.1638E-4  -.9969     0.2860E-4  -.9915   
 0.4404     0.1641E-4  -.9969     0.2867E-4  -.9915   
 0.4605     0.1645E-4  -.9969     0.2875E-4  -.9915   
 0.4805     0.1648E-4  -.9969     0.2882E-4  -.9915   
 0.5005     0.1652E-4  -.9969     0.2890E-4  -.9915   
 0.5205     0.1655E-4  -.9969     0.2897E-4  -.9915   
 0.5405     0.1658E-4  -.9969     0.2905E-4  -.9915   
 0.5606     0.1662E-4  -.9969     0.2913E-4  -.9915   
 0.5806     0.1665E-4  -.9969     0.2920E-4  -.9915   
 0.6006     0.1669E-4  -.9969     0.2928E-4  -.9915   
 0.6206     0.1672E-4  -.9969     0.2936E-4  -.9915   
 0.6406     0.1675E-4  -.9969     0.2944E-4  -.9915   
 0.6607     0.1679E-4  -.9969     0.2952E-4  -.9915   
 0.6807     0.1682E-4  -.9969     0.2959E-4  -.9915   
 0.7007     0.1686E-4  -.9969     0.2967E-4  -.9915   
 0.7207     0.1689E-4  -.9969     0.2975E-4  -.9915   
 0.7407     0.1693E-4  -.9969     0.2983E-4  -.9915   
 0.7608     0.1696E-4  -.9969     0.2991E-4  -.9915   
 0.7808     0.1700E-4  -.9969     0.2999E-4  -.9915   
 0.8008     0.1703E-4  -.9969     0.3007E-4  -.9915   
 0.8208     0.1707E-4  -.9969     0.3015E-4  -.9915   
 0.8408     0.1710E-4  -.9969     0.3024E-4  -.9915   
 0.8609     0.1714E-4  -.9969     0.3032E-4  -.9915   
 0.8809     0.1718E-4  -.9969     0.3040E-4  -.9915   
 0.9009     0.1721E-4  -.9969     0.3048E-4  -.9915   
 0.9209     0.1725E-4  -.9969     0.3056E-4  -.9915   
 0.9409     0.1728E-4  -.9969     0.3065E-4  -.9915   
 0.9610     0.1732E-4  -.9969     0.3073E-4  -.9915   
 0.9810     0.1736E-4  -.9969     0.3081E-4  -.9915   
  1.001     0.1739E-4  -.9969     0.3090E-4  -.9915   
  1.021     0.1743E-4  -.9969     0.3098E-4  -.9915   
  1.041     0.1747E-4  -.9969     0.3106E-4  -.9915   
  1.061     0.1750E-4  -.9969     0.3115E-4  -.9915   
  1.081     0.1754E-4  -.9969     0.3123E-4  -.9915   
  1.101     0.1758E-4  -.9969     0.3132E-4  -.9915   
  1.121     0.1761E-4  -.9969     0.3141E-4  -.9915   
  1.141     0.1765E-4  -.9969     0.3149E-4  -.9915   
  1.161     0.1769E-4  -.9969     0.3158E-4  -.9915   
  1.181     0.1773E-4  -.9969     0.3167E-4  -.9915   
  1.201     0.1776E-4  -.9969     0.3175E-4  -.9915   
  1.221     0.1780E-4  -.9968     0.3184E-4  -.9915   
  1.241     0.1784E-4  -.9969     0.3193E-4  -.9914   
  1.261     0.1788E-4  -.9968     0.3202E-4  -.9915   
  1.281     0.1792E-4  -.9968     0.3210E-4  -.9914   
  1.301     0.1795E-4  -.9968     0.3219E-4  -.9914   
  1.321     0.1799E-4  -.9968     0.3228E-4  -.9914   
  1.341     0.1803E-4  -.9968     0.3237E-4  -.9914   
  1.361     0.1807E-4  -.9968     0.3246E-4  -.9914   
  1.381     0.1811E-4  -.9968     0.3255E-4  -.9914   
  1.401     0.1815E-4  -.9968     0.3264E-4  -.9914   
  1.421     0.1819E-4  -.9968     0.3274E-4  -.9914   
  1.441     0.1823E-4  -.9968     0.3283E-4  -.9914   
  1.461     0.1826E-4  -.9968     0.3292E-4  -.9914   
  1.481     0.1830E-4  -.9968     0.3301E-4  -.9914   
  1.502     0.1834E-4  -.9968     0.3310E-4  -.9914   
  1.522     0.1838E-4  -.9968     0.3320E-4  -.9914   
  1.542     0.1842E-4  -.9968     0.3329E-4  -.9914   
  1.562     0.1846E-4  -.9968     0.3339E-4  -.9914   
  1.582     0.1850E-4  -.9968     0.3348E-4  -.9914   
  1.602     0.1854E-4  -.9968     0.3357E-4  -.9914   
  1.622     0.1858E-4  -.9968     0.3367E-4  -.9914   
  1.642     0.1862E-4  -.9968     0.3376E-4  -.9914   
  1.662     0.1866E-4  -.9968     0.3386E-4  -.9914   
  1.682     0.1870E-4  -.9968     0.3396E-4  -.9914   
  1.702     0.1875E-4  -.9968     0.3405E-4  -.9914   
  1.722     0.1879E-4  -.9968     0.3415E-4  -.9914   
  1.742     0.1883E-4  -.9968     0.3425E-4  -.9914   
  1.762     0.1887E-4  -.9968     0.3435E-4  -.9914   
  1.782     0.1891E-4  -.9968     0.3445E-4  -.9914   
  1.802     0.1895E-4  -.9968     0.3454E-4  -.9914   
  1.822     0.1899E-4  -.9968     0.3464E-4  -.9914   
  1.842     0.1904E-4  -.9968     0.3474E-4  -.9914   
  1.862     0.1908E-4  -.9968     0.3484E-4  -.9914   
  1.882     0.1912E-4  -.9968     0.3494E-4  -.9914   
  1.902     0.1916E-4  -.9968     0.3505E-4  -.9914   
  1.922     0.1920E-4  -.9968     0.3515E-4  -.9914   
  1.942     0.1925E-4  -.9968     0.3525E-4  -.9914   
  1.962     0.1929E-4  -.9968     0.3535E-4  -.9914   
  1.982     0.1933E-4  -.9968     0.3545E-4  -.9914   
  2.002     0.1937E-4  -.9968     0.3556E-4  -.9914   
  2.022     0.1942E-4  -.9968     0.3566E-4  -.9914   
  2.042     0.1946E-4  -.9968     0.3577E-4  -.9914   
  2.062     0.1950E-4  -.9968     0.3587E-4  -.9914   
  2.082     0.1955E-4  -.9968     0.3598E-4  -.9914   
  2.102     0.1959E-4  -.9968     0.3608E-4  -.9914   
  2.122     0.1964E-4  -.9968     0.3619E-4  -.9914   
  2.142     0.1968E-4  -.9968     0.3629E-4  -.9914   
  2.162     0.1972E-4  -.9968     0.3640E-4  -.9913   
  2.182     0.1977E-4  -.9968     0.3651E-4  -.9913   
  2.202     0.1981E-4  -.9968     0.3661E-4  -.9913   
  2.222     0.1986E-4  -.9968     0.3672E-4  -.9913   
  2.242     0.1990E-4  -.9968     0.3683E-4  -.9913   
  2.262     0.1995E-4  -.9968     0.3694E-4  -.9913   
  2.282     0.1999E-4  -.9968     0.3705E-4  -.9913   
  2.302     0.2004E-4  -.9968     0.3716E-4  -.9913   
  2.322     0.2008E-4  -.9968     0.3727E-4  -.9913   
  2.342     0.2013E-4  -.9968     0.3738E-4  -.9913   
  2.362     0.2017E-4  -.9968     0.3750E-4  -.9913   
  2.382     0.2022E-4  -.9968     0.3761E-4  -.9913   
  2.402     0.2027E-4  -.9968     0.3772E-4  -.9913   
  2.422     0.2031E-4  -.9968     0.3783E-4  -.9913   
  2.442     0.2036E-4  -.9968     0.3795E-4  -.9913   
  2.462     0.2040E-4  -.9968     0.3806E-4  -.9913   
  2.482     0.2045E-4  -.9968     0.3818E-4  -.9913   
  2.503     0.2050E-4  -.9968     0.3829E-4  -.9913   
  2.523     0.2054E-4  -.9968     0.3841E-4  -.9913   
  2.543     0.2059E-4  -.9968     0.3852E-4  -.9913   
  2.563     0.2064E-4  -.9968     0.3864E-4  -.9913   
  2.583     0.2069E-4  -.9968     0.3876E-4  -.9913   
  2.603     0.2073E-4  -.9968     0.3888E-4  -.9913   
  2.623     0.2078E-4  -.9968     0.3899E-4  -.9913   
  2.643     0.2083E-4  -.9968     0.3911E-4  -.9913   
  2.663     0.2088E-4  -.9968     0.3923E-4  -.9913   
  2.683     0.2093E-4  -.9968     0.3935E-4  -.9913   
  2.703     0.2098E-4  -.9968     0.3947E-4  -.9913   
  2.723     0.2102E-4  -.9968     0.3960E-4  -.9913   
  2.743     0.2107E-4  -.9968     0.3972E-4  -.9913   
  2.763     0.2112E-4  -.9968     0.3984E-4  -.9912   
  2.783     0.2117E-4  -.9968     0.3996E-4  -.9912   
  2.803     0.2122E-4  -.9968     0.4009E-4  -.9912   
  2.823     0.2127E-4  -.9968     0.4021E-4  -.9912   
  2.843     0.2132E-4  -.9968     0.4033E-4  -.9912   
  2.863     0.2137E-4  -.9968     0.4046E-4  -.9912   
  2.883     0.2142E-4  -.9968     0.4059E-4  -.9912   
  2.903     0.2147E-4  -.9968     0.4071E-4  -.9912   
  2.923     0.2152E-4  -.9968     0.4084E-4  -.9912   
  2.943     0.2157E-4  -.9968     0.4097E-4  -.9912   
  2.963     0.2162E-4  -.9968     0.4109E-4  -.9912   
  2.983     0.2167E-4  -.9968     0.4122E-4  -.9912   
  3.003     0.2172E-4  -.9968     0.4135E-4  -.9912   
  3.023     0.2178E-4  -.9968     0.4148E-4  -.9912   
  3.043     0.2183E-4  -.9968     0.4161E-4  -.9912   
  3.063     0.2188E-4  -.9968     0.4174E-4  -.9912   
  3.083     0.2193E-4  -.9968     0.4188E-4  -.9912   
  3.103     0.2198E-4  -.9968     0.4201E-4  -.9912   
  3.123     0.2203E-4  -.9968     0.4214E-4  -.9912   
  3.143     0.2209E-4  -.9968     0.4227E-4  -.9912   
  3.163     0.2214E-4  -.9968     0.4241E-4  -.9912   
  3.183     0.2219E-4  -.9968     0.4254E-4  -.9912   
  3.203     0.2225E-4  -.9968     0.4268E-4  -.9912   
  3.223     0.2230E-4  -.9968     0.4282E-4  -.9911   
  3.243     0.2235E-4  -.9968     0.4295E-4  -.9911   
  3.263     0.2241E-4  -.9968     0.4309E-4  -.9911   
  3.283     0.2246E-4  -.9968     0.4323E-4  -.9911   
  3.303     0.2251E-4  -.9968     0.4337E-4  -.9911   
  3.323     0.2257E-4  -.9968     0.4351E-4  -.9911   
  3.343     0.2262E-4  -.9968     0.4365E-4  -.9911   
  3.363     0.2268E-4  -.9968     0.4379E-4  -.9911   
  3.383     0.2273E-4  -.9968     0.4393E-4  -.9911   
  3.403     0.2279E-4  -.9968     0.4407E-4  -.9911   
  3.423     0.2284E-4  -.9968     0.4422E-4  -.9911   
  3.443     0.2290E-4  -.9968     0.4436E-4  -.9911   
  3.463     0.2295E-4  -.9968     0.4450E-4  -.9911   
  3.483     0.2301E-4  -.9968     0.4465E-4  -.9911   
  3.504     0.2307E-4  -.9968     0.4479E-4  -.9911   
  3.524     0.2312E-4  -.9968     0.4494E-4  -.9911   
  3.544     0.2318E-4  -.9968     0.4509E-4  -.9911   
  3.564     0.2324E-4  -.9968     0.4524E-4  -.9911   
  3.584     0.2329E-4  -.9967     0.4538E-4  -.9911   
  3.604     0.2335E-4  -.9967     0.4553E-4  -.9911   
  3.624     0.2341E-4  -.9967     0.4568E-4  -.9910   
  3.644     0.2346E-4  -.9967     0.4584E-4  -.9910   
  3.664     0.2352E-4  -.9967     0.4599E-4  -.9910   
  3.684     0.2358E-4  -.9967     0.4614E-4  -.9910   
  3.704     0.2364E-4  -.9967     0.4629E-4  -.9910   
  3.724     0.2370E-4  -.9967     0.4645E-4  -.9910   
  3.744     0.2376E-4  -.9967     0.4660E-4  -.9910   
  3.764     0.2382E-4  -.9967     0.4676E-4  -.9910   
  3.784     0.2387E-4  -.9967     0.4691E-4  -.9910   
  3.804     0.2393E-4  -.9967     0.4707E-4  -.9910   
  3.824     0.2399E-4  -.9967     0.4723E-4  -.9910   
  3.844     0.2405E-4  -.9967     0.4739E-4  -.9910   
  3.864     0.2411E-4  -.9967     0.4755E-4  -.9910   
  3.884     0.2417E-4  -.9967     0.4771E-4  -.9910   
  3.904     0.2423E-4  -.9967     0.4787E-4  -.9910   
  3.924     0.2429E-4  -.9967     0.4803E-4  -.9910   
  3.944     0.2436E-4  -.9967     0.4819E-4  -.9910   
  3.964     0.2442E-4  -.9967     0.4836E-4  -.9909   
  3.984     0.2448E-4  -.9967     0.4852E-4  -.9909   
  4.004     0.2454E-4  -.9967     0.4868E-4  -.9909   
  4.024     0.2460E-4  -.9967     0.4885E-4  -.9909   
  4.044     0.2466E-4  -.9967     0.4902E-4  -.9909   
  4.064     0.2473E-4  -.9967     0.4919E-4  -.9909   
  4.084     0.2479E-4  -.9967     0.4935E-4  -.9909   
  4.104     0.2485E-4  -.9967     0.4952E-4  -.9909   
  4.124     0.2492E-4  -.9967     0.4969E-4  -.9909   
  4.144     0.2498E-4  -.9967     0.4986E-4  -.9909   
  4.164     0.2504E-4  -.9967     0.5004E-4  -.9909   
  4.184     0.2511E-4  -.9967     0.5021E-4  -.9909   
  4.204     0.2517E-4  -.9967     0.5038E-4  -.9909   
  4.224     0.2523E-4  -.9967     0.5056E-4  -.9909   
  4.244     0.2530E-4  -.9967     0.5073E-4  -.9909   
  4.264     0.2536E-4  -.9967     0.5091E-4  -.9909   
  4.284     0.2543E-4  -.9967     0.5109E-4  -.9908   
  4.304     0.2550E-4  -.9967     0.5127E-4  -.9908   
  4.324     0.2556E-4  -.9967     0.5145E-4  -.9908   
  4.344     0.2563E-4  -.9967     0.5163E-4  -.9908   
  4.364     0.2569E-4  -.9967     0.5181E-4  -.9908   
  4.384     0.2576E-4  -.9967     0.5199E-4  -.9908   
  4.404     0.2583E-4  -.9967     0.5217E-4  -.9908   
  4.424     0.2589E-4  -.9967     0.5236E-4  -.9908   
  4.444     0.2596E-4  -.9967     0.5254E-4  -.9908   
  4.464     0.2603E-4  -.9967     0.5273E-4  -.9908   
  4.484     0.2610E-4  -.9967     0.5292E-4  -.9908   
  4.505     0.2616E-4  -.9967     0.5310E-4  -.9908   
  4.525     0.2623E-4  -.9967     0.5329E-4  -.9908   
  4.545     0.2630E-4  -.9967     0.5348E-4  -.9908   
  4.565     0.2637E-4  -.9967     0.5367E-4  -.9907   
  4.585     0.2644E-4  -.9967     0.5387E-4  -.9907   
  4.605     0.2651E-4  -.9967     0.5406E-4  -.9907   
  4.625     0.2658E-4  -.9967     0.5425E-4  -.9907   
  4.645     0.2665E-4  -.9967     0.5445E-4  -.9907   
  4.665     0.2672E-4  -.9967     0.5465E-4  -.9907   
  4.685     0.2679E-4  -.9967     0.5484E-4  -.9907   
  4.705     0.2686E-4  -.9967     0.5504E-4  -.9907   
  4.725     0.2693E-4  -.9967     0.5524E-4  -.9907   
  4.745     0.2700E-4  -.9966     0.5544E-4  -.9907   
  4.765     0.2708E-4  -.9966     0.5564E-4  -.9907   
  4.785     0.2715E-4  -.9966     0.5585E-4  -.9907   
  4.805     0.2722E-4  -.9966     0.5605E-4  -.9907   
  4.825     0.2729E-4  -.9966     0.5626E-4  -.9906   
  4.845     0.2737E-4  -.9966     0.5646E-4  -.9906   
  4.865     0.2744E-4  -.9966     0.5667E-4  -.9906   
  4.885     0.2751E-4  -.9966     0.5688E-4  -.9906   
  4.905     0.2759E-4  -.9966     0.5709E-4  -.9906   
  4.925     0.2766E-4  -.9966     0.5730E-4  -.9906   
  4.945     0.2773E-4  -.9966     0.5751E-4  -.9906   
  4.965     0.2781E-4  -.9966     0.5772E-4  -.9906   
  4.985     0.2788E-4  -.9966     0.5794E-4  -.9906   
  5.005     0.2796E-4  -.9966     0.5815E-4  -.9906   
  5.025     0.2804E-4  -.9966     0.5837E-4  -.9906   
  5.045     0.2811E-4  -.9966     0.5859E-4  -.9906   
  5.065     0.2819E-4  -.9966     0.5881E-4  -.9905   
  5.085     0.2827E-4  -.9966     0.5903E-4  -.9905   
  5.105     0.2834E-4  -.9966     0.5925E-4  -.9905   
  5.125     0.2842E-4  -.9966     0.5947E-4  -.9905   
  5.145     0.2850E-4  -.9966     0.5970E-4  -.9905   
  5.165     0.2858E-4  -.9966     0.5992E-4  -.9905   
  5.185     0.2865E-4  -.9966     0.6015E-4  -.9905   
  5.205     0.2873E-4  -.9966     0.6038E-4  -.9905   
  5.225     0.2881E-4  -.9966     0.6061E-4  -.9905   
  5.245     0.2889E-4  -.9966     0.6084E-4  -.9905   
  5.265     0.2897E-4  -.9966     0.6107E-4  -.9905   
  5.285     0.2905E-4  -.9966     0.6130E-4  -.9904   
  5.305     0.2913E-4  -.9966     0.6154E-4  -.9904   
  5.325     0.2921E-4  -.9966     0.6177E-4  -.9904   
  5.345     0.2929E-4  -.9966     0.6201E-4  -.9904   
  5.365     0.2937E-4  -.9966     0.6225E-4  -.9904   
  5.385     0.2946E-4  -.9966     0.6249E-4  -.9904   
  5.405     0.2954E-4  -.9966     0.6273E-4  -.9904   
  5.425     0.2962E-4  -.9966     0.6297E-4  -.9904   
  5.445     0.2970E-4  -.9966     0.6322E-4  -.9904   
  5.465     0.2979E-4  -.9966     0.6346E-4  -.9904   
  5.485     0.2987E-4  -.9966     0.6371E-4  -.9904   
  5.506     0.2995E-4  -.9966     0.6396E-4  -.9903   
  5.526     0.3004E-4  -.9966     0.6421E-4  -.9903   
  5.546     0.3012E-4  -.9966     0.6446E-4  -.9903   
  5.566     0.3021E-4  -.9966     0.6471E-4  -.9903   
  5.586     0.3029E-4  -.9966     0.6497E-4  -.9903   
  5.606     0.3038E-4  -.9966     0.6522E-4  -.9903   
  5.626     0.3047E-4  -.9965     0.6548E-4  -.9903   
  5.646     0.3055E-4  -.9965     0.6574E-4  -.9903   
  5.666     0.3064E-4  -.9965     0.6600E-4  -.9903   
  5.686     0.3073E-4  -.9965     0.6626E-4  -.9903   
  5.706     0.3081E-4  -.9965     0.6653E-4  -.9902   
  5.726     0.3090E-4  -.9965     0.6679E-4  -.9902   
  5.746     0.3099E-4  -.9965     0.6706E-4  -.9902   
  5.766     0.3108E-4  -.9965     0.6733E-4  -.9902   
  5.786     0.3117E-4  -.9965     0.6760E-4  -.9902   
  5.806     0.3126E-4  -.9965     0.6787E-4  -.9902   
  5.826     0.3135E-4  -.9965     0.6814E-4  -.9902   
  5.846     0.3144E-4  -.9965     0.6842E-4  -.9902   
  5.866     0.3153E-4  -.9965     0.6869E-4  -.9902   
  5.886     0.3162E-4  -.9965     0.6897E-4  -.9902   
  5.906     0.3171E-4  -.9965     0.6925E-4  -.9901   
  5.926     0.3181E-4  -.9965     0.6954E-4  -.9901   
  5.946     0.3190E-4  -.9965     0.6982E-4  -.9901   
  5.966     0.3199E-4  -.9965     0.7010E-4  -.9901   
  5.986     0.3208E-4  -.9965     0.7039E-4  -.9901   
  6.006     0.3218E-4  -.9965     0.7068E-4  -.9901   
  6.026     0.3227E-4  -.9965     0.7097E-4  -.9901   
  6.046     0.3237E-4  -.9965     0.7126E-4  -.9901   
  6.066     0.3246E-4  -.9965     0.7156E-4  -.9901   
  6.086     0.3256E-4  -.9965     0.7185E-4  -.9900   
  6.106     0.3265E-4  -.9965     0.7215E-4  -.9900   
  6.126     0.3275E-4  -.9965     0.7245E-4  -.9900   
  6.146     0.3285E-4  -.9965     0.7275E-4  -.9900   
  6.166     0.3294E-4  -.9965     0.7306E-4  -.9900   
  6.186     0.3304E-4  -.9965     0.7336E-4  -.9900   
  6.206     0.3314E-4  -.9965     0.7367E-4  -.9900   
  6.226     0.3324E-4  -.9965     0.7398E-4  -.9900   
  6.246     0.3334E-4  -.9965     0.7429E-4  -.9900   
  6.266     0.3344E-4  -.9965     0.7460E-4  -.9899   
  6.286     0.3354E-4  -.9965     0.7492E-4  -.9899   
  6.306     0.3364E-4  -.9965     0.7523E-4  -.9899   
  6.326     0.3374E-4  -.9965     0.7555E-4  -.9899   
  6.346     0.3384E-4  -.9964     0.7588E-4  -.9899   
  6.366     0.3394E-4  -.9964     0.7620E-4  -.9899   
  6.386     0.3404E-4  -.9964     0.7652E-4  -.9899   
  6.406     0.3415E-4  -.9964     0.7685E-4  -.9898   
  6.426     0.3425E-4  -.9964     0.7718E-4  -.9898   
  6.446     0.3435E-4  -.9964     0.7751E-4  -.9898   
  6.466     0.3446E-4  -.9964     0.7785E-4  -.9898   
  6.486     0.3456E-4  -.9964     0.7818E-4  -.9898   
  6.507     0.3467E-4  -.9964     0.7852E-4  -.9898   
  6.527     0.3477E-4  -.9964     0.7886E-4  -.9898   
  6.547     0.3488E-4  -.9964     0.7920E-4  -.9898   
  6.567     0.3499E-4  -.9964     0.7955E-4  -.9897   
  6.587     0.3509E-4  -.9964     0.7990E-4  -.9897   
  6.607     0.3520E-4  -.9964     0.8025E-4  -.9897   
  6.627     0.3531E-4  -.9964     0.8060E-4  -.9897   
  6.647     0.3542E-4  -.9964     0.8095E-4  -.9897   
  6.667     0.3553E-4  -.9964     0.8131E-4  -.9897   
  6.687     0.3564E-4  -.9964     0.8166E-4  -.9897   
  6.707     0.3575E-4  -.9964     0.8203E-4  -.9897   
  6.727     0.3586E-4  -.9964     0.8239E-4  -.9896   
  6.747     0.3597E-4  -.9964     0.8276E-4  -.9896   
  6.767     0.3608E-4  -.9964     0.8312E-4  -.9896   
  6.787     0.3619E-4  -.9964     0.8350E-4  -.9896   
  6.807     0.3631E-4  -.9964     0.8387E-4  -.9896   
  6.827     0.3642E-4  -.9964     0.8424E-4  -.9896   
  6.847     0.3653E-4  -.9964     0.8462E-4  -.9896   
  6.867     0.3665E-4  -.9964     0.8500E-4  -.9895   
  6.887     0.3676E-4  -.9964     0.8539E-4  -.9895   
  6.907     0.3688E-4  -.9964     0.8577E-4  -.9895   
  6.927     0.3700E-4  -.9964     0.8616E-4  -.9895   
  6.947     0.3711E-4  -.9963     0.8655E-4  -.9895   
  6.967     0.3723E-4  -.9963     0.8695E-4  -.9895   
  6.987     0.3735E-4  -.9963     0.8735E-4  -.9895   
  7.007     0.3747E-4  -.9963     0.8774E-4  -.9894   
  7.027     0.3759E-4  -.9963     0.8815E-4  -.9894   
  7.047     0.3771E-4  -.9963     0.8855E-4  -.9894   
  7.067     0.3783E-4  -.9963     0.8896E-4  -.9894   
  7.087     0.3795E-4  -.9963     0.8937E-4  -.9894   
  7.107     0.3807E-4  -.9963     0.8978E-4  -.9894   
  7.127     0.3819E-4  -.9963     0.9020E-4  -.9894   
  7.147     0.3832E-4  -.9963     0.9062E-4  -.9893   
  7.167     0.3844E-4  -.9963     0.9104E-4  -.9893   
  7.187     0.3856E-4  -.9963     0.9147E-4  -.9893   
  7.207     0.3869E-4  -.9963     0.9190E-4  -.9893   
  7.227     0.3881E-4  -.9963     0.9233E-4  -.9893   
  7.247     0.3894E-4  -.9963     0.9276E-4  -.9893   
  7.267     0.3907E-4  -.9963     0.9320E-4  -.9892   
  7.287     0.3919E-4  -.9963     0.9364E-4  -.9892   
  7.307     0.3932E-4  -.9963     0.9408E-4  -.9892   
  7.327     0.3945E-4  -.9963     0.9453E-4  -.9892   
  7.347     0.3958E-4  -.9963     0.9498E-4  -.9892   
  7.367     0.3971E-4  -.9963     0.9543E-4  -.9892   
  7.387     0.3984E-4  -.9963     0.9589E-4  -.9891   
  7.407     0.3997E-4  -.9963     0.9635E-4  -.9891   
  7.427     0.4010E-4  -.9963     0.9681E-4  -.9891   
  7.447     0.4024E-4  -.9963     0.9728E-4  -.9891   
  7.467     0.4037E-4  -.9962     0.9775E-4  -.9891   
  7.487     0.4050E-4  -.9962     0.9822E-4  -.9891   
  7.508     0.4064E-4  -.9962     0.9870E-4  -.9890   
  7.528     0.4078E-4  -.9962     0.9918E-4  -.9890   
  7.548     0.4091E-4  -.9962     0.9966E-4  -.9890   
  7.568     0.4105E-4  -.9962     0.1001E-3  -.9890   
  7.588     0.4119E-4  -.9962     0.1006E-3  -.9890   
  7.608     0.4132E-4  -.9962     0.1011E-3  -.9890   
  7.628     0.4146E-4  -.9962     0.1016E-3  -.9889   
  7.648     0.4160E-4  -.9962     0.1021E-3  -.9889   
  7.668     0.4174E-4  -.9962     0.1026E-3  -.9889   
  7.688     0.4188E-4  -.9962     0.1031E-3  -.9889   
  7.708     0.4203E-4  -.9962     0.1037E-3  -.9889   
  7.728     0.4217E-4  -.9962     0.1042E-3  -.9889   
  7.748     0.4231E-4  -.9962     0.1047E-3  -.9888   
  7.768     0.4246E-4  -.9962     0.1052E-3  -.9888   
  7.788     0.4260E-4  -.9962     0.1058E-3  -.9888   
  7.808     0.4275E-4  -.9962     0.1063E-3  -.9888   
  7.828     0.4289E-4  -.9962     0.1068E-3  -.9888   
  7.848     0.4304E-4  -.9962     0.1074E-3  -.9887   
  7.868     0.4319E-4  -.9962     0.1079E-3  -.9887   
  7.888     0.4334E-4  -.9962     0.1085E-3  -.9887   
  7.908     0.4349E-4  -.9962     0.1090E-3  -.9887   
  7.928     0.4364E-4  -.9961     0.1096E-3  -.9887   
  7.948     0.4379E-4  -.9961     0.1101E-3  -.9886   
  7.968     0.4394E-4  -.9961     0.1107E-3  -.9886   
  7.988     0.4410E-4  -.9961     0.1113E-3  -.9886   
  8.008     0.4425E-4  -.9961     0.1118E-3  -.9886   
  8.028     0.4441E-4  -.9961     0.1124E-3  -.9886   
  8.048     0.4456E-4  -.9961     0.1130E-3  -.9885   
  8.068     0.4472E-4  -.9961     0.1136E-3  -.9885   
  8.088     0.4487E-4  -.9961     0.1142E-3  -.9885   
  8.108     0.4503E-4  -.9961     0.1148E-3  -.9885   
  8.128     0.4519E-4  -.9961     0.1154E-3  -.9885   
  8.148     0.4535E-4  -.9961     0.1160E-3  -.9884   
  8.168     0.4551E-4  -.9961     0.1166E-3  -.9884   
  8.188     0.4567E-4  -.9961     0.1172E-3  -.9884   
  8.208     0.4584E-4  -.9961     0.1178E-3  -.9884   
  8.228     0.4600E-4  -.9961     0.1185E-3  -.9884   
  8.248     0.4616E-4  -.9961     0.1191E-3  -.9883   
  8.268     0.4633E-4  -.9961     0.1197E-3  -.9883   
  8.288     0.4650E-4  -.9961     0.1204E-3  -.9883   
  8.308     0.4666E-4  -.9961     0.1210E-3  -.9883   
  8.328     0.4683E-4  -.9961     0.1217E-3  -.9882   
  8.348     0.4700E-4  -.9960     0.1223E-3  -.9882   
  8.368     0.4717E-4  -.9960     0.1230E-3  -.9882   
  8.388     0.4734E-4  -.9960     0.1237E-3  -.9882   
  8.408     0.4751E-4  -.9960     0.1244E-3  -.9882   
  8.428     0.4769E-4  -.9960     0.1250E-3  -.9881   
  8.448     0.4786E-4  -.9960     0.1257E-3  -.9881   
  8.468     0.4804E-4  -.9960     0.1264E-3  -.9881   
  8.488     0.4821E-4  -.9960     0.1271E-3  -.9881   
  8.509     0.4839E-4  -.9960     0.1278E-3  -.9880   
  8.529     0.4857E-4  -.9960     0.1285E-3  -.9880   
  8.549     0.4875E-4  -.9960     0.1292E-3  -.9880   
  8.569     0.4893E-4  -.9960     0.1300E-3  -.9880   
  8.589     0.4911E-4  -.9960     0.1307E-3  -.9880   
  8.609     0.4929E-4  -.9960     0.1314E-3  -.9879   
  8.629     0.4947E-4  -.9960     0.1322E-3  -.9879   
  8.649     0.4966E-4  -.9960     0.1329E-3  -.9879   
  8.669     0.4984E-4  -.9960     0.1337E-3  -.9879   
  8.689     0.5003E-4  -.9960     0.1344E-3  -.9878   
  8.709     0.5022E-4  -.9960     0.1352E-3  -.9878   
  8.729     0.5040E-4  -.9959     0.1359E-3  -.9878   
  8.749     0.5059E-4  -.9959     0.1367E-3  -.9878   
  8.769     0.5079E-4  -.9959     0.1375E-3  -.9877   
  8.789     0.5098E-4  -.9959     0.1383E-3  -.9877   
  8.809     0.5117E-4  -.9959     0.1391E-3  -.9877   
  8.829     0.5136E-4  -.9959     0.1399E-3  -.9877   
  8.849     0.5156E-4  -.9959     0.1407E-3  -.9876   
  8.869     0.5176E-4  -.9959     0.1415E-3  -.9876   
  8.889     0.5195E-4  -.9959     0.1424E-3  -.9876   
  8.909     0.5215E-4  -.9959     0.1432E-3  -.9876   
  8.929     0.5235E-4  -.9959     0.1440E-3  -.9875   
  8.949     0.5256E-4  -.9959     0.1449E-3  -.9875   
  8.969     0.5276E-4  -.9959     0.1457E-3  -.9875   
  8.989     0.5296E-4  -.9959     0.1466E-3  -.9874   
  9.009     0.5317E-4  -.9959     0.1475E-3  -.9874   
  9.029     0.5337E-4  -.9959     0.1484E-3  -.9874   
  9.049     0.5358E-4  -.9959     0.1492E-3  -.9874   
  9.069     0.5379E-4  -.9958     0.1501E-3  -.9873   
  9.089     0.5400E-4  -.9958     0.1510E-3  -.9873   
  9.109     0.5421E-4  -.9958     0.1519E-3  -.9873   
  9.129     0.5443E-4  -.9958     0.1529E-3  -.9873   
  9.149     0.5464E-4  -.9958     0.1538E-3  -.9872   
  9.169     0.5485E-4  -.9958     0.1547E-3  -.9872   
  9.189     0.5507E-4  -.9958     0.1557E-3  -.9872   
  9.209     0.5529E-4  -.9958     0.1566E-3  -.9871   
  9.229     0.5551E-4  -.9958     0.1576E-3  -.9871   
  9.249     0.5573E-4  -.9958     0.1586E-3  -.9871   
  9.269     0.5595E-4  -.9958     0.1595E-3  -.9871   
  9.289     0.5618E-4  -.9958     0.1605E-3  -.9870   
  9.309     0.5640E-4  -.9958     0.1615E-3  -.9870   
  9.329     0.5663E-4  -.9958     0.1625E-3  -.9870   
  9.349     0.5686E-4  -.9958     0.1636E-3  -.9869   
  9.369     0.5709E-4  -.9958     0.1646E-3  -.9869   
  9.389     0.5732E-4  -.9957     0.1656E-3  -.9869   
  9.409     0.5755E-4  -.9957     0.1667E-3  -.9868   
  9.429     0.5778E-4  -.9957     0.1677E-3  -.9868   
  9.449     0.5802E-4  -.9957     0.1688E-3  -.9868   
  9.469     0.5825E-4  -.9957     0.1699E-3  -.9867   
  9.489     0.5849E-4  -.9957     0.1710E-3  -.9867   
  9.510     0.5873E-4  -.9957     0.1721E-3  -.9867   
  9.530     0.5897E-4  -.9957     0.1732E-3  -.9866   
  9.550     0.5922E-4  -.9957     0.1743E-3  -.9866   
  9.570     0.5946E-4  -.9957     0.1754E-3  -.9866   
  9.590     0.5971E-4  -.9957     0.1766E-3  -.9866   
  9.610     0.5996E-4  -.9957     0.1777E-3  -.9865   
  9.630     0.6020E-4  -.9957     0.1789E-3  -.9865   
  9.650     0.6046E-4  -.9957     0.1801E-3  -.9865   
  9.670     0.6071E-4  -.9957     0.1812E-3  -.9864   
  9.690     0.6096E-4  -.9956     0.1824E-3  -.9864   
  9.710     0.6122E-4  -.9956     0.1837E-3  -.9863   
  9.730     0.6148E-4  -.9956     0.1849E-3  -.9863   
  9.750     0.6174E-4  -.9956     0.1861E-3  -.9863   
  9.770     0.6200E-4  -.9956     0.1874E-3  -.9862   
  9.790     0.6226E-4  -.9956     0.1886E-3  -.9862   
  9.810     0.6253E-4  -.9956     0.1899E-3  -.9862   
  9.830     0.6279E-4  -.9956     0.1912E-3  -.9861   
  9.850     0.6306E-4  -.9956     0.1925E-3  -.9861   
  9.870     0.6333E-4  -.9956     0.1938E-3  -.9861   
  9.890     0.6360E-4  -.9956     0.1951E-3  -.9860   
  9.910     0.6388E-4  -.9956     0.1965E-3  -.9860   
  9.930     0.6415E-4  -.9956     0.1978E-3  -.9860   
  9.950     0.6443E-4  -.9955     0.1992E-3  -.9859   
  9.970     0.6471E-4  -.9955     0.2006E-3  -.9859   
  9.990     0.6499E-4  -.9955     0.2020E-3  -.9858   
  10.01     0.6527E-4  -.9955     0.2034E-3  -.9858   
  10.03     0.6556E-4  -.9955     0.2048E-3  -.9858   
  10.05     0.6585E-4  -.9955     0.2063E-3  -.9857   
  10.07     0.6614E-4  -.9955     0.2077E-3  -.9857   
  10.09     0.6643E-4  -.9955     0.2092E-3  -.9857   
  10.11     0.6672E-4  -.9955     0.2107E-3  -.9856   
  10.13     0.6702E-4  -.9955     0.2122E-3  -.9856   
  10.15     0.6731E-4  -.9955     0.2137E-3  -.9855   
  10.17     0.6761E-4  -.9955     0.2152E-3  -.9855   
  10.19     0.6792E-4  -.9955     0.2168E-3  -.9854   
  10.21     0.6822E-4  -.9954     0.2184E-3  -.9854   
  10.23     0.6853E-4  -.9954     0.2200E-3  -.9854   
  10.25     0.6883E-4  -.9954     0.2216E-3  -.9853   
  10.27     0.6914E-4  -.9954     0.2232E-3  -.9853   
  10.29     0.6946E-4  -.9954     0.2248E-3  -.9852   
  10.31     0.6977E-4  -.9954     0.2265E-3  -.9852   
  10.33     0.7009E-4  -.9954     0.2282E-3  -.9852   
  10.35     0.7041E-4  -.9954     0.2299E-3  -.9851   
  10.37     0.7073E-4  -.9954     0.2316E-3  -.9851   
  10.39     0.7105E-4  -.9954     0.2333E-3  -.9850   
  10.41     0.7138E-4  -.9954     0.2351E-3  -.9850   
  10.43     0.7171E-4  -.9953     0.2369E-3  -.9849   
  10.45     0.7204E-4  -.9953     0.2387E-3  -.9849   
  10.47     0.7237E-4  -.9953     0.2405E-3  -.9848   
  10.49     0.7271E-4  -.9953     0.2423E-3  -.9848   
  10.51     0.7305E-4  -.9953     0.2442E-3  -.9847   
  10.53     0.7339E-4  -.9953     0.2460E-3  -.9847   
  10.55     0.7373E-4  -.9953     0.2480E-3  -.9847   
  10.57     0.7408E-4  -.9953     0.2499E-3  -.9846   
  10.59     0.7443E-4  -.9953     0.2518E-3  -.9846   
  10.61     0.7478E-4  -.9953     0.2538E-3  -.9845   
  10.63     0.7513E-4  -.9953     0.2558E-3  -.9845   
  10.65     0.7549E-4  -.9953     0.2578E-3  -.9844   
  10.67     0.7585E-4  -.9952     0.2598E-3  -.9844   
  10.69     0.7621E-4  -.9952     0.2619E-3  -.9843   
  10.71     0.7658E-4  -.9952     0.2640E-3  -.9843   
  10.73     0.7695E-4  -.9952     0.2661E-3  -.9842   
  10.75     0.7732E-4  -.9952     0.2683E-3  -.9842   
  10.77     0.7769E-4  -.9952     0.2704E-3  -.9841   
  10.79     0.7807E-4  -.9952     0.2726E-3  -.9841   
  10.81     0.7844E-4  -.9952     0.2748E-3  -.9840   
  10.83     0.7883E-4  -.9952     0.2771E-3  -.9839   
  10.85     0.7921E-4  -.9952     0.2794E-3  -.9839   
  10.87     0.7960E-4  -.9951     0.2817E-3  -.9838   
  10.89     0.7999E-4  -.9951     0.2840E-3  -.9838   
  10.91     0.8038E-4  -.9951     0.2864E-3  -.9837   
  10.93     0.8078E-4  -.9951     0.2888E-3  -.9837   
  10.95     0.8118E-4  -.9951     0.2912E-3  -.9836   
  10.97     0.8159E-4  -.9951     0.2936E-3  -.9836   
  10.99     0.8199E-4  -.9951     0.2961E-3  -.9835   
  11.01     0.8240E-4  -.9951     0.2986E-3  -.9834   
  11.03     0.8282E-4  -.9951     0.3012E-3  -.9834   
  11.05     0.8323E-4  -.9951     0.3038E-3  -.9833   
  11.07     0.8365E-4  -.9950     0.3064E-3  -.9833   
  11.09     0.8408E-4  -.9950     0.3090E-3  -.9832   
  11.11     0.8450E-4  -.9950     0.3117E-3  -.9832   
  11.13     0.8493E-4  -.9950     0.3144E-3  -.9831   
  11.15     0.8537E-4  -.9950     0.3172E-3  -.9830   
  11.17     0.8580E-4  -.9950     0.3200E-3  -.9830   
  11.19     0.8625E-4  -.9950     0.3228E-3  -.9829   
  11.21     0.8669E-4  -.9950     0.3257E-3  -.9829   
  11.23     0.8714E-4  -.9950     0.3286E-3  -.9828   
  11.25     0.8759E-4  -.9949     0.3315E-3  -.9827   
  11.27     0.8805E-4  -.9949     0.3345E-3  -.9827   
  11.29     0.8851E-4  -.9949     0.3375E-3  -.9826   
  11.31     0.8897E-4  -.9949     0.3406E-3  -.9825   
  11.33     0.8944E-4  -.9949     0.3437E-3  -.9825   
  11.35     0.8991E-4  -.9949     0.3468E-3  -.9824   
  11.37     0.9038E-4  -.9949     0.3500E-3  -.9823   
  11.39     0.9086E-4  -.9949     0.3533E-3  -.9823   
  11.41     0.9134E-4  -.9948     0.3566E-3  -.9822   
  11.43     0.9183E-4  -.9948     0.3599E-3  -.9821   
  11.45     0.9232E-4  -.9948     0.3633E-3  -.9821   
  11.47     0.9282E-4  -.9948     0.3667E-3  -.9820   
  11.49     0.9332E-4  -.9948     0.3702E-3  -.9819   
  11.51     0.9382E-4  -.9948     0.3737E-3  -.9818   
  11.53     0.9433E-4  -.9948     0.3773E-3  -.9818   
  11.55     0.9484E-4  -.9948     0.3809E-3  -.9817   
  11.57     0.9536E-4  -.9947     0.3846E-3  -.9816   
  11.59     0.9588E-4  -.9947     0.3883E-3  -.9815   
  11.61     0.9641E-4  -.9947     0.3921E-3  -.9815   
  11.63     0.9694E-4  -.9947     0.3959E-3  -.9814   
  11.65     0.9748E-4  -.9947     0.3998E-3  -.9813   
  11.67     0.9802E-4  -.9947     0.4038E-3  -.9812   
  11.69     0.9857E-4  -.9947     0.4078E-3  -.9811   
  11.71     0.9912E-4  -.9947     0.4119E-3  -.9811   
  11.73     0.9967E-4  -.9946     0.4160E-3  -.9810   
  11.75     0.1002E-3  -.9946     0.4202E-3  -.9809   
  11.77     0.1008E-3  -.9946     0.4245E-3  -.9808   
  11.79     0.1014E-3  -.9946     0.4288E-3  -.9807   
  11.81     0.1019E-3  -.9946     0.4332E-3  -.9807   
  11.83     0.1025E-3  -.9946     0.4377E-3  -.9806   
  11.85     0.1031E-3  -.9946     0.4422E-3  -.9805   
  11.87     0.1037E-3  -.9946     0.4469E-3  -.9804   
  11.89     0.1043E-3  -.9945     0.4515E-3  -.9803   
  11.91     0.1049E-3  -.9945     0.4563E-3  -.9802   
  11.93     0.1055E-3  -.9945     0.4611E-3  -.9801   
  11.95     0.1061E-3  -.9945     0.4660E-3  -.9800   
  11.97     0.1067E-3  -.9945     0.4710E-3  -.9800   
  11.99     0.1074E-3  -.9945     0.4761E-3  -.9799   
  12.01     0.1080E-3  -.9945     0.4813E-3  -.9798   
  12.03     0.1086E-3  -.9944     0.4865E-3  -.9797   
  12.05     0.1093E-3  -.9944     0.4918E-3  -.9796   
  12.07     0.1099E-3  -.9944     0.4972E-3  -.9795   
  12.09     0.1106E-3  -.9944     0.5027E-3  -.9794   
  12.11     0.1113E-3  -.9944     0.5083E-3  -.9793   
  12.13     0.1119E-3  -.9944     0.5140E-3  -.9792   
  12.15     0.1126E-3  -.9943     0.5198E-3  -.9791   
  12.17     0.1133E-3  -.9943     0.5257E-3  -.9790   
  12.19     0.1140E-3  -.9943     0.5317E-3  -.9789   
  12.21     0.1147E-3  -.9943     0.5378E-3  -.9788   
  12.23     0.1154E-3  -.9943     0.5440E-3  -.9787   
  12.25     0.1161E-3  -.9943     0.5503E-3  -.9786   
  12.27     0.1168E-3  -.9943     0.5567E-3  -.9785   
  12.29     0.1175E-3  -.9942     0.5632E-3  -.9783   
  12.31     0.1183E-3  -.9942     0.5699E-3  -.9782   
  12.33     0.1190E-3  -.9942     0.5766E-3  -.9781   
  12.35     0.1197E-3  -.9942     0.5835E-3  -.9780   
  12.37     0.1205E-3  -.9942     0.5905E-3  -.9779   
  12.39     0.1213E-3  -.9942     0.5977E-3  -.9778   
  12.41     0.1220E-3  -.9941     0.6049E-3  -.9777   
  12.43     0.1228E-3  -.9941     0.6123E-3  -.9775   
  12.45     0.1236E-3  -.9941     0.6199E-3  -.9774   
  12.47     0.1244E-3  -.9941     0.6276E-3  -.9773   
  12.49     0.1252E-3  -.9941     0.6354E-3  -.9772   
  12.51     0.1260E-3  -.9941     0.6434E-3  -.9770   
  12.53     0.1268E-3  -.9940     0.6515E-3  -.9769   
  12.55     0.1276E-3  -.9940     0.6598E-3  -.9768   
  12.57     0.1285E-3  -.9940     0.6682E-3  -.9767   
  12.59     0.1293E-3  -.9940     0.6768E-3  -.9765   
  12.61     0.1302E-3  -.9940     0.6856E-3  -.9764   
  12.63     0.1310E-3  -.9939     0.6945E-3  -.9763   
  12.65     0.1319E-3  -.9939     0.7036E-3  -.9761   
  12.67     0.1328E-3  -.9939     0.7129E-3  -.9760   
  12.69     0.1337E-3  -.9939     0.7224E-3  -.9758   
  12.71     0.1346E-3  -.9939     0.7321E-3  -.9757   
  12.73     0.1355E-3  -.9939     0.7420E-3  -.9755   
  12.75     0.1364E-3  -.9938     0.7521E-3  -.9754   
  12.77     0.1373E-3  -.9938     0.7624E-3  -.9753   
  12.79     0.1383E-3  -.9938     0.7729E-3  -.9751   
  12.81     0.1392E-3  -.9938     0.7836E-3  -.9749   
  12.83     0.1402E-3  -.9938     0.7945E-3  -.9748   
  12.85     0.1412E-3  -.9937     0.8057E-3  -.9746   
  12.87     0.1421E-3  -.9937     0.8171E-3  -.9745   
  12.89     0.1431E-3  -.9937     0.8288E-3  -.9743   
  12.91     0.1441E-3  -.9937     0.8407E-3  -.9741   
  12.93     0.1452E-3  -.9937     0.8529E-3  -.9740   
  12.95     0.1462E-3  -.9936     0.8653E-3  -.9738   
  12.97     0.1472E-3  -.9936     0.8780E-3  -.9736   
  12.99     0.1483E-3  -.9936     0.8910E-3  -.9735   
  13.01     0.1494E-3  -.9936     0.9043E-3  -.9733   
  13.03     0.1504E-3  -.9935     0.9179E-3  -.9731   
  13.05     0.1515E-3  -.9935     0.9318E-3  -.9729   
  13.07     0.1526E-3  -.9935     0.9461E-3  -.9727   
  13.09     0.1538E-3  -.9935     0.9606E-3  -.9725   
  13.11     0.1549E-3  -.9935     0.9755E-3  -.9724   
  13.13     0.1560E-3  -.9934     0.9907E-3  -.9722   
  13.15     0.1572E-3  -.9934     0.1006E-2  -.9720   
  13.17     0.1584E-3  -.9934     0.1022E-2  -.9718   
  13.19     0.1595E-3  -.9934     0.1039E-2  -.9716   
  13.21     0.1607E-3  -.9933     0.1055E-2  -.9713   
  13.23     0.1620E-3  -.9933     0.1073E-2  -.9711   
  13.25     0.1632E-3  -.9933     0.1090E-2  -.9709   
  13.27     0.1644E-3  -.9933     0.1108E-2  -.9707   
  13.29     0.1657E-3  -.9932     0.1127E-2  -.9705   
  13.31     0.1670E-3  -.9932     0.1146E-2  -.9703   
  13.33     0.1683E-3  -.9932     0.1165E-2  -.9700   
  13.35     0.1696E-3  -.9932     0.1185E-2  -.9698   
  13.37     0.1709E-3  -.9932     0.1206E-2  -.9696   
  13.39     0.1723E-3  -.9931     0.1227E-2  -.9693   
  13.41     0.1736E-3  -.9931     0.1248E-2  -.9691   
  13.43     0.1750E-3  -.9931     0.1270E-2  -.9688   
  13.45     0.1764E-3  -.9930     0.1293E-2  -.9686   
  13.47     0.1778E-3  -.9930     0.1316E-2  -.9683   
  13.49     0.1793E-3  -.9930     0.1340E-2  -.9681   
  13.51     0.1807E-3  -.9930     0.1365E-2  -.9678   
  13.53     0.1822E-3  -.9929     0.1390E-2  -.9675   
  13.55     0.1837E-3  -.9929     0.1417E-2  -.9673   
  13.57     0.1852E-3  -.9929     0.1443E-2  -.9670   
  13.59     0.1867E-3  -.9929     0.1471E-2  -.9667   
  13.61     0.1883E-3  -.9928     0.1499E-2  -.9664   
  13.63     0.1899E-3  -.9928     0.1529E-2  -.9661   
  13.65     0.1915E-3  -.9928     0.1559E-2  -.9658   
  13.67     0.1931E-3  -.9927     0.1590E-2  -.9655   
  13.69     0.1947E-3  -.9927     0.1621E-2  -.9652   
  13.71     0.1964E-3  -.9927     0.1654E-2  -.9648   
  13.73     0.1981E-3  -.9927     0.1688E-2  -.9645   
  13.75     0.1998E-3  -.9926     0.1723E-2  -.9642   
  13.77     0.2015E-3  -.9926     0.1759E-2  -.9638   
  13.79     0.2033E-3  -.9926     0.1797E-2  -.9635   
  13.81     0.2051E-3  -.9925     0.1835E-2  -.9631   
  13.83     0.2069E-3  -.9925     0.1875E-2  -.9627   
  13.85     0.2087E-3  -.9925     0.1916E-2  -.9624   
  13.87     0.2106E-3  -.9924     0.1958E-2  -.9620   
  13.89     0.2125E-3  -.9924     0.2002E-2  -.9616   
  13.91     0.2144E-3  -.9924     0.2047E-2  -.9612   
  13.93     0.2164E-3  -.9923     0.2094E-2  -.9608   
  13.95     0.2184E-3  -.9923     0.2142E-2  -.9604   
  13.97     0.2204E-3  -.9923     0.2192E-2  -.9599   
  13.99     0.2224E-3  -.9922     0.2244E-2  -.9595   
  14.01     0.2245E-3  -.9922     0.2298E-2  -.9590   
  14.03     0.2266E-3  -.9922     0.2354E-2  -.9586   
  14.05     0.2287E-3  -.9921     0.2412E-2  -.9581   
  14.07     0.2309E-3  -.9921     0.2472E-2  -.9576   
  14.09     0.2331E-3  -.9921     0.2534E-2  -.9571   
  14.11     0.2354E-3  -.9920     0.2599E-2  -.9566   
  14.13     0.2376E-3  -.9920     0.2666E-2  -.9561   
  14.15     0.2400E-3  -.9920     0.2736E-2  -.9556   
  14.17     0.2423E-3  -.9919     0.2808E-2  -.9550   
  14.19     0.2447E-3  -.9919     0.2884E-2  -.9545   
  14.21     0.2471E-3  -.9918     0.2962E-2  -.9539   
  14.23     0.2496E-3  -.9918     0.3044E-2  -.9533   
  14.25     0.2521E-3  -.9918     0.3130E-2  -.9527   
  14.27     0.2547E-3  -.9917     0.3219E-2  -.9521   
  14.29     0.2573E-3  -.9917     0.3312E-2  -.9514   
  14.31     0.2599E-3  -.9917     0.3409E-2  -.9508   
  14.33     0.2626E-3  -.9916     0.3510E-2  -.9501   
  14.35     0.2653E-3  -.9916     0.3616E-2  -.9494   
  14.37     0.2681E-3  -.9915     0.3727E-2  -.9486   
  14.39     0.2710E-3  -.9915     0.3843E-2  -.9479   
  14.41     0.2738E-3  -.9914     0.3964E-2  -.9471   
  14.43     0.2768E-3  -.9914     0.4091E-2  -.9463   
  14.45     0.2798E-3  -.9914     0.4225E-2  -.9455   
  14.47     0.2828E-3  -.9913     0.4365E-2  -.9447   
  14.49     0.2859E-3  -.9913     0.4513E-2  -.9438   
  14.51     0.2890E-3  -.9912     0.4668E-2  -.9429   
  14.53     0.2922E-3  -.9912     0.4831E-2  -.9420   
  14.55     0.2955E-3  -.9911     0.5002E-2  -.9410   
  14.57     0.2988E-3  -.9911     0.5184E-2  -.9400   
  14.59     0.3022E-3  -.9910     0.5375E-2  -.9390   
  14.61     0.3057E-3  -.9910     0.5577E-2  -.9379   
  14.63     0.3092E-3  -.9909     0.5790E-2  -.9368   
  14.65     0.3128E-3  -.9909     0.6016E-2  -.9356   
  14.67     0.3165E-3  -.9908     0.6256E-2  -.9344   
  14.69     0.3202E-3  -.9908     0.6510E-2  -.9332   
  14.71     0.3240E-3  -.9907     0.6780E-2  -.9319   
  14.73     0.3279E-3  -.9907     0.7067E-2  -.9305   
  14.75     0.3319E-3  -.9906     0.7373E-2  -.9291   
  14.77     0.3359E-3  -.9906     0.7699E-2  -.9276   
  14.79     0.3400E-3  -.9905     0.8047E-2  -.9261   
  14.81     0.3442E-3  -.9905     0.8419E-2  -.9245   
  14.83     0.3485E-3  -.9904     0.8818E-2  -.9228   
  14.85     0.3529E-3  -.9903     0.9246E-2  -.9211   
  14.87     0.3574E-3  -.9903     0.9705E-2  -.9192   
  14.89     0.3620E-3  -.9902     0.1020E-1  -.9173   
  14.91     0.3667E-3  -.9902     0.1073E-1  -.9153   
  14.93     0.3715E-3  -.9901     0.1131E-1  -.9132   
  14.95     0.3763E-3  -.9900     0.1193E-1  -.9109   
  14.97     0.3813E-3  -.9900     0.1261E-1  -.9086   
  14.99     0.3864E-3  -.9899     0.1334E-1  -.9061   
  15.02     0.3917E-3  -.9899     0.1414E-1  -.9034   
  15.04     0.3970E-3  -.9898     0.1502E-1  -.9007   
  15.06     0.4025E-3  -.9897     0.1597E-1  -.8977   
  15.08     0.4081E-3  -.9897     0.1703E-1  -.8946   
  15.10     0.4138E-3  -.9896     0.1818E-1  -.8913   
  15.12     0.4197E-3  -.9895     0.1946E-1  -.8877   
  15.14     0.4257E-3  -.9894     0.2088E-1  -.8840   
  15.16     0.4318E-3  -.9894     0.2246E-1  -.8799   
  15.18     0.4381E-3  -.9893     0.2421E-1  -.8756   
  15.20     0.4446E-3  -.9892     0.2619E-1  -.8710   
  15.22     0.4512E-3  -.9892     0.2841E-1  -.8660   
  15.24     0.4580E-3  -.9891     0.3091E-1  -.8606   
  15.26     0.4649E-3  -.9890     0.3377E-1  -.8548   
  15.28     0.4721E-3  -.9889     0.3702E-1  -.8485   
  15.30     0.4794E-3  -.9888     0.4076E-1  -.8417   
  15.32     0.4869E-3  -.9888     0.4508E-1  -.8343   
  15.34     0.4946E-3  -.9887     0.5010E-1  -.8263   
  15.36     0.5026E-3  -.9886     0.5599E-1  -.8174   
  15.38     0.5107E-3  -.9885     0.6293E-1  -.8078   
  15.40     0.5191E-3  -.9884     0.7119E-1  -.7973   
  15.42     0.5277E-3  -.9883     0.8110E-1  -.7858   
  15.44     0.5365E-3  -.9882     0.9311E-1  -.7732   
  15.46     0.5456E-3  -.9881     0.1078     -.7597   
  15.48     0.5550E-3  -.9881     0.1260     -.7451   
  15.50     0.5646E-3  -.9880     0.1486     -.7299   
  15.52     0.5746E-3  -.9879     0.1772     -.7145   
  15.54     0.5848E-3  -.9878     0.2134     -.7001   
  15.56     0.5953E-3  -.9877     0.2591     -.6887   
  15.58     0.6062E-3  -.9875     0.3163     -.6838   
  15.60     0.6174E-3  -.9874     0.3850     -.6913   
  15.62     0.6290E-3  -.9873     0.4623     -.7202   
  15.64     0.6409E-3  -.9872     0.5397     -.7806   
  15.66     0.6532E-3  -.9871     0.6004     -.8762   
  15.68     0.6660E-3  -.9870     0.6239     -.9967   
  15.70     0.6791E-3  -.9869     0.6000     -1.117   
  15.72     0.6927E-3  -.9868     0.5383     -1.212   
  15.74     0.7068E-3  -.9866     0.4594     -1.273   
  15.76     0.7213E-3  -.9865     0.3811     -1.302   
  15.78     0.7364E-3  -.9864     0.3126     -1.309   
  15.80     0.7520E-3  -.9863     0.2563     -1.304   
  15.82     0.7682E-3  -.9861     0.2114     -1.292   
  15.84     0.7850E-3  -.9860     0.1758     -1.278   
  15.86     0.8024E-3  -.9858     0.1476     -1.262   
  15.88     0.8205E-3  -.9857     0.1252     -1.247   
  15.90     0.8393E-3  -.9856     0.1073     -1.232   
  15.92     0.8589E-3  -.9854     0.9269E-1  -1.218   
  15.94     0.8792E-3  -.9852     0.8077E-1  -1.206   
  15.96     0.9003E-3  -.9851     0.7093E-1  -1.194   
  15.98     0.9224E-3  -.9849     0.6272E-1  -1.184   
  16.00     0.9453E-3  -.9848     0.5582E-1  -1.174   
  16.02     0.9693E-3  -.9846     0.4998E-1  -1.165   
  16.04     0.9943E-3  -.9844     0.4498E-1  -1.157   
  16.06     0.1020E-2  -.9842     0.4069E-1  -1.150   
  16.08     0.1048E-2  -.9840     0.3697E-1  -1.143   
  16.10     0.1076E-2  -.9839     0.3374E-1  -1.137   
  16.12     0.1106E-2  -.9837     0.3090E-1  -1.131   
  16.14     0.1138E-2  -.9835     0.2841E-1  -1.126   
  16.16     0.1170E-2  -.9832     0.2620E-1  -1.121   
  16.18     0.1205E-2  -.9830     0.2425E-1  -1.116   
  16.20     0.1241E-2  -.9828     0.2250E-1  -1.112   
  16.22     0.1280E-2  -.9826     0.2093E-1  -1.108   
  16.24     0.1320E-2  -.9823     0.1953E-1  -1.104   
  16.26     0.1362E-2  -.9821     0.1826E-1  -1.100   
  16.28     0.1407E-2  -.9818     0.1711E-1  -1.097   
  16.30     0.1454E-2  -.9816     0.1607E-1  -1.094   
  16.32     0.1504E-2  -.9813     0.1512E-1  -1.091   
  16.34     0.1558E-2  -.9810     0.1425E-1  -1.088   
  16.36     0.1614E-2  -.9807     0.1346E-1  -1.085   
  16.38     0.1674E-2  -.9804     0.1273E-1  -1.083   
  16.40     0.1738E-2  -.9801     0.1207E-1  -1.081   
  16.42     0.1806E-2  -.9798     0.1145E-1  -1.078   
  16.44     0.1878E-2  -.9794     0.1088E-1  -1.076   
  16.46     0.1956E-2  -.9791     0.1036E-1  -1.074   
  16.48     0.2039E-2  -.9787     0.9875E-2  -1.072   
  16.50     0.2128E-2  -.9783     0.9426E-2  -1.070   
  16.52     0.2224E-2  -.9779     0.9008E-2  -1.069   
  16.54     0.2328E-2  -.9775     0.8619E-2  -1.067   
  16.56     0.2440E-2  -.9771     0.8258E-2  -1.065   
  16.58     0.2561E-2  -.9766     0.7921E-2  -1.064   
  16.60     0.2693E-2  -.9761     0.7607E-2  -1.062   
  16.62     0.2836E-2  -.9756     0.7313E-2  -1.061   
  16.64     0.2993E-2  -.9751     0.7039E-2  -1.059   
  16.66     0.3164E-2  -.9745     0.6782E-2  -1.058   
  16.68     0.3352E-2  -.9739     0.6542E-2  -1.057   
  16.70     0.3559E-2  -.9733     0.6318E-2  -1.055   
  16.72     0.3789E-2  -.9726     0.6108E-2  -1.054   
  16.74     0.4043E-2  -.9719     0.5911E-2  -1.053   
  16.76     0.4327E-2  -.9712     0.5728E-2  -1.052   
  16.78     0.4645E-2  -.9703     0.5556E-2  -1.051   
  16.80     0.5003E-2  -.9695     0.5396E-2  -1.050   
  16.82     0.5407E-2  -.9686     0.5247E-2  -1.049   
  16.84     0.5867E-2  -.9676     0.5108E-2  -1.048   
  16.86     0.6393E-2  -.9665     0.4980E-2  -1.047   
  16.88     0.6998E-2  -.9653     0.4861E-2  -1.046   
  16.90     0.7699E-2  -.9641     0.4752E-2  -1.045   
  16.92     0.8516E-2  -.9627     0.4653E-2  -1.044   
  16.94     0.9478E-2  -.9613     0.4563E-2  -1.043   
  16.96     0.1062E-1  -.9597     0.4483E-2  -1.042   
  16.98     0.1198E-1  -.9579     0.4412E-2  -1.041   
  17.00     0.1363E-1  -.9561     0.4352E-2  -1.040   
  17.02     0.1565E-1  -.9540     0.4302E-2  -1.039   
  17.04     0.1813E-1  -.9519     0.4263E-2  -1.039   
  17.06     0.2122E-1  -.9496     0.4236E-2  -1.038   
  17.08     0.2509E-1  -.9474     0.4223E-2  -1.037   
  17.10     0.2998E-1  -.9452     0.4223E-2  -1.036   
  17.12     0.3615E-1  -.9436     0.4240E-2  -1.035   
  17.14     0.4385E-1  -.9429     0.4276E-2  -1.034   
  17.16     0.5315E-1  -.9440     0.4333E-2  -1.034   
  17.18     0.6364E-1  -.9482     0.4415E-2  -1.033   
  17.20     0.7393E-1  -.9564     0.4528E-2  -1.032   
  17.22     0.8154E-1  -.9690     0.4676E-2  -1.031   
  17.24     0.8381E-1  -.9843     0.4869E-2  -1.030   
  17.26     0.7985E-1  -.9991     0.5117E-2  -1.029   
  17.28     0.7132E-1  -1.011     0.5435E-2  -1.029   
  17.30     0.6098E-1  -1.017     0.5840E-2  -1.028   
  17.32     0.5099E-1  -1.020     0.6359E-2  -1.027   
  17.34     0.4238E-1  -1.021     0.7024E-2  -1.026   
  17.36     0.3538E-1  -1.020     0.7877E-2  -1.025   
  17.38     0.2984E-1  -1.017     0.8971E-2  -1.024   
  17.40     0.2551E-1  -1.015     0.1036E-1  -1.023   
  17.42     0.2214E-1  -1.012     0.1210E-1  -1.023   
  17.44     0.1952E-1  -1.010     0.1416E-1  -1.023   
  17.46     0.1748E-1  -1.007     0.1640E-1  -1.024   
  17.48     0.1589E-1  -1.005     0.1841E-1  -1.026   
  17.50     0.1468E-1  -1.002     0.1961E-1  -1.028   
  17.52     0.1377E-1  -1.000     0.1953E-1  -1.031   
  17.54     0.1311E-1  -.9980     0.1819E-1  -1.034   
  17.56     0.1267E-1  -.9958     0.1608E-1  -1.036   
  17.58     0.1242E-1  -.9937     0.1379E-1  -1.036   
  17.60     0.1236E-1  -.9916     0.1169E-1  -1.037   
  17.62     0.1248E-1  -.9895     0.9920E-2  -1.036   
  17.64     0.1279E-1  -.9873     0.8491E-2  -1.036   
  17.66     0.1330E-1  -.9852     0.7356E-2  -1.035   
  17.68     0.1403E-1  -.9829     0.6458E-2  -1.034   
  17.70     0.1501E-1  -.9806     0.5745E-2  -1.033   
  17.72     0.1631E-1  -.9782     0.5175E-2  -1.032   
  17.74     0.1798E-1  -.9757     0.4717E-2  -1.032   
  17.76     0.2012E-1  -.9731     0.4346E-2  -1.031   
  17.78     0.2285E-1  -.9704     0.4043E-2  -1.030   
  17.80     0.2636E-1  -.9677     0.3795E-2  -1.029   
  17.82     0.3084E-1  -.9651     0.3592E-2  -1.029   
  17.84     0.3658E-1  -.9628     0.3425E-2  -1.028   
  17.86     0.4383E-1  -.9615     0.3289E-2  -1.028   
  17.88     0.5277E-1  -.9617     0.3180E-2  -1.027   
  17.90     0.6319E-1  -.9646     0.3094E-2  -1.026   
  17.92     0.7407E-1  -.9714     0.3029E-2  -1.026   
  17.94     0.8320E-1  -.9828     0.2982E-2  -1.025   
  17.96     0.8763E-1  -.9980     0.2955E-2  -1.025   
  17.98     0.8560E-1  -1.014     0.2945E-2  -1.024   
  18.00     0.7795E-1  -1.027     0.2953E-2  -1.024   
  18.02     0.6738E-1  -1.036     0.2980E-2  -1.023   
  18.04     0.5650E-1  -1.041     0.3027E-2  -1.022   
  18.06     0.4679E-1  -1.042     0.3097E-2  -1.022   
  18.08     0.3874E-1  -1.041     0.3192E-2  -1.021   
  18.10     0.3227E-1  -1.040     0.3315E-2  -1.021   
  18.12     0.2716E-1  -1.037     0.3473E-2  -1.020   
  18.14     0.2312E-1  -1.035     0.3673E-2  -1.019   
  18.16     0.1992E-1  -1.032     0.3922E-2  -1.019   
  18.18     0.1735E-1  -1.030     0.4234E-2  -1.018   
  18.20     0.1529E-1  -1.028     0.4624E-2  -1.017   
  18.22     0.1361E-1  -1.025     0.5114E-2  -1.017   
  18.24     0.1224E-1  -1.023     0.5731E-2  -1.016   
  18.26     0.1111E-1  -1.022     0.6515E-2  -1.015   
  18.28     0.1018E-1  -1.020     0.7512E-2  -1.015   
  18.30     0.9397E-2  -1.018     0.8783E-2  -1.014   
  18.32     0.8748E-2  -1.017     0.1039E-1  -1.013   
  18.34     0.8206E-2  -1.015     0.1238E-1  -1.013   
  18.36     0.7755E-2  -1.014     0.1474E-1  -1.014   
  18.38     0.7382E-2  -1.013     0.1728E-1  -1.015   
  18.40     0.7077E-2  -1.011     0.1954E-1  -1.017   
  18.42     0.6832E-2  -1.010     0.2086E-1  -1.020   
  18.44     0.6641E-2  -1.009     0.2072E-1  -1.024   
  18.46     0.6501E-2  -1.008     0.1917E-1  -1.027   
  18.48     0.6408E-2  -1.007     0.1680E-1  -1.029   
  18.50     0.6362E-2  -1.005     0.1424E-1  -1.030   
  18.52     0.6361E-2  -1.004     0.1190E-1  -1.031   
  18.54     0.6406E-2  -1.003     0.9940E-2  -1.031   
  18.56     0.6501E-2  -1.002     0.8358E-2  -1.030   
  18.58     0.6649E-2  -1.001     0.7104E-2  -1.029   
  18.60     0.6855E-2  -.9998     0.6113E-2  -1.029   
  18.62     0.7126E-2  -.9986     0.5327E-2  -1.028   
  18.64     0.7474E-2  -.9974     0.4700E-2  -1.027   
  18.66     0.7912E-2  -.9961     0.4195E-2  -1.027   
  18.68     0.8457E-2  -.9948     0.3786E-2  -1.026   
  18.70     0.9134E-2  -.9934     0.3452E-2  -1.025   
  18.72     0.9974E-2  -.9919     0.3177E-2  -1.025   
  18.74     0.1102E-1  -.9904     0.2951E-2  -1.024   
  18.76     0.1232E-1  -.9888     0.2764E-2  -1.024   
  18.78     0.1396E-1  -.9871     0.2610E-2  -1.023   
  18.80     0.1603E-1  -.9854     0.2484E-2  -1.023   
  18.82     0.1866E-1  -.9838     0.2382E-2  -1.023   
  18.84     0.2200E-1  -.9823     0.2302E-2  -1.022   
  18.86     0.2621E-1  -.9813     0.2242E-2  -1.022   
  18.88     0.3141E-1  -.9811     0.2202E-2  -1.021   
  18.90     0.3751E-1  -.9825     0.2180E-2  -1.021   
  18.92     0.4399E-1  -.9861     0.2177E-2  -1.021   
  18.94     0.4963E-1  -.9924     0.2195E-2  -1.020   
  18.96     0.5272E-1  -1.001     0.2236E-2  -1.020   
  18.98     0.5204E-1  -1.010     0.2303E-2  -1.019   
  19.00     0.4791E-1  -1.018     0.2402E-2  -1.019   
  19.02     0.4186E-1  -1.024     0.2539E-2  -1.019   
  19.04     0.3549E-1  -1.026     0.2724E-2  -1.018   
  19.06     0.2974E-1  -1.027     0.2970E-2  -1.018   
  19.08     0.2495E-1  -1.026     0.3293E-2  -1.017   
  19.10     0.2113E-1  -1.025     0.3714E-2  -1.017   
  19.12     0.1812E-1  -1.024     0.4255E-2  -1.017   
  19.14     0.1577E-1  -1.022     0.4933E-2  -1.017   
  19.16     0.1393E-1  -1.020     0.5743E-2  -1.017   
  19.18     0.1249E-1  -1.019     0.6622E-2  -1.017   
  19.20     0.1137E-1  -1.017     0.7413E-2  -1.018   
  19.22     0.1049E-1  -1.015     0.7883E-2  -1.019   
  19.24     0.9809E-2  -1.014     0.7841E-2  -1.020   
  19.26     0.9292E-2  -1.012     0.7298E-2  -1.021   
  19.28     0.8912E-2  -1.011     0.6452E-2  -1.022   
  19.30     0.8649E-2  -1.010     0.5536E-2  -1.022   
  19.32     0.8489E-2  -1.008     0.4695E-2  -1.022   
  19.34     0.8426E-2  -1.007     0.3986E-2  -1.022   
  19.36     0.8453E-2  -1.006     0.3413E-2  -1.022   
  19.38     0.8571E-2  -1.004     0.2957E-2  -1.021   
  19.40     0.8781E-2  -1.003     0.2595E-2  -1.021   
  19.42     0.9090E-2  -1.002     0.2307E-2  -1.021   
  19.44     0.9508E-2  -1.000     0.2076E-2  -1.020   
  19.46     0.1005E-1  -.9987     0.1889E-2  -1.020   
  19.48     0.1074E-1  -.9972     0.1736E-2  -1.020   
  19.50     0.1160E-1  -.9956     0.1611E-2  -1.020   
  19.52     0.1267E-1  -.9939     0.1507E-2  -1.019   
  19.54     0.1400E-1  -.9921     0.1421E-2  -1.019   
  19.56     0.1566E-1  -.9902     0.1349E-2  -1.019   
  19.58     0.1774E-1  -.9883     0.1289E-2  -1.019   
  19.60     0.2037E-1  -.9863     0.1240E-2  -1.018   
  19.62     0.2369E-1  -.9843     0.1199E-2  -1.018   
  19.64     0.2791E-1  -.9824     0.1166E-2  -1.018   
  19.66     0.3326E-1  -.9810     0.1141E-2  -1.018   
  19.68     0.3995E-1  -.9806     0.1122E-2  -1.018   
  19.70     0.4803E-1  -.9818     0.1110E-2  -1.017   
  19.72     0.5710E-1  -.9857     0.1105E-2  -1.017   
  19.74     0.6591E-1  -.9932     0.1107E-2  -1.017   
  19.76     0.7228E-1  -1.004     0.1118E-2  -1.017   
  19.78     0.7396E-1  -1.018     0.1137E-2  -1.017   
  19.80     0.7033E-1  -1.031     0.1166E-2  -1.017   
  19.82     0.6290E-1  -1.041     0.1208E-2  -1.017   
  19.84     0.5406E-1  -1.047     0.1266E-2  -1.016   
  19.86     0.4561E-1  -1.050     0.1343E-2  -1.016   
  19.88     0.3838E-1  -1.051     0.1444E-2  -1.016   
  19.90     0.3255E-1  -1.051     0.1576E-2  -1.016   
  19.92     0.2798E-1  -1.051     0.1749E-2  -1.016   
  19.94     0.2448E-1  -1.050     0.1971E-2  -1.016   
  19.96     0.2183E-1  -1.051     0.2253E-2  -1.017   
  19.98     0.1987E-1  -1.056     0.2576E-2  -1.018   
  20.00     0.2101E-3  -1.054     0.2579E-4  -1.018   
# 
# YAMBO@aiken x 001 CPUs * 12/30/2011  11:58 [start]
#                          12/30/2011  11:58 [end]
# 
# Cpu Timing [Min/Max/Average]: 01s/01s/01s
#
# .-Input file : Inputs/03_RPA_LF_QP
# | optics                       # [R OPT] Optics
# | bse                          # [R BSK] Bethe Salpeter Equation.
# | bss                          # [R BSS] Bethe Salpeter Equation solver
# | FFTGvecs=  9987        RL    # [FFT] Plane-waves
# | NonPDirs= "XYZ"              # [X/BSS] Non periodic chartesian directions (X,Y,Z,XY...)
# | % KfnQP_E
# |  7.600000 | 1.000000 | 1.000000 |        # [EXTQP BSK BSS] E parameters  (c/v) eV|adim|adim
# | %
# | BSresKmod= "x"               # [BSK] Resonant Kernel mode. (`x`;`c`;`d`)
# | BScplKmod= "none"            # [BSK] Coupling Kernel mode. (`x`;`c`;`d`;`u`)
# | % BSEBands
# |    1 | 200 |                 # [BSK] Bands range
# | %
# | BSENGBlk= 1            RL    # [BSK] Screened interaction block size
# | BSENGexx=  9045        RL    # [BSK] Exchange components
# | BSSmod= "d"                  # [BSS] Solvers `h/d/i/t`
# | % BEnRange
# |   0.00000 | 20.00000 | eV    # [BSS] Energy range
# | %
# | % BDmRange
# |   0.10000 |  0.10000 | eV    # [BSS] Damping range
# | %
# | BEnSteps= 1000               # [BSS] Energy steps
# | % BLongDir
# | 0.1000E-4 | 0.000    | 0.000    |        # [BSS] [cc] Electric Field
# | %
