#                                                           
# ooooo   oooo ..     ooo        ooo ooooooooo.    .oooo.   
#  `88.   .8" .88.    `88.       .88 `88"   `Y8b  dP"  `Yb  
#   `88. .8" .8"88.    888b     d"88  88     888 88      88 
#    `88.8" .8" `88.   8 Y88. .P  88  88oooo888" 88      88 
#     `88" .88ooo888.  8  `888"   88  88    `88b 88      88 
#      88 .8"     `88. 8    Y     88  88    .88P `8b    d8" 
#     o88o88o      888o8          88 o88bood8P"   `Ybod8P"  
#                                                           
#              GPL Version 3.1.2 Revision 297               
#                 http://www.yambo-code.org                 
#
# Polarization (-<<X>>) [volume] @ IQ 1 :0.1000E-4  0.000     0.000
#
# - The gauge is transverse + [r,Vnl] -
#
# BSK|Identifier              :1803
#    |Dimension               :199
#    |Bands                   :1 - 200
#    |Exchange           [res]: yes
#    |Correlation        [res]: no
#    |Kernel`s coupling       : no
#    |Exchange           [cpl]: no
#    |Correlation        [cpl]: no
#    |ALDA kernel in R-space  : no
#    |RL vectors    [exchange]:9045
#    |E/h energy range    [ev]:-1.000000 - -1.000000
#    |Coupling range     [o/o]: 100.0000 -  100.0000
#
#  E/ev[1]    alpha/Im   alpha/Re   alphao/Im  alphao/Re
#
   0.00000    0.01965    4.05528    0.03427    5.41420
   0.02002    0.01969    4.05928    0.03435    5.42117
   0.04004    0.01973    4.06328    0.03444    5.42798
   0.06006    0.01977    4.06713    0.03453    5.43495
   0.08008    0.01981    4.07114    0.03462    5.44177
   0.10010    0.01985    4.07514    0.03471    5.44874
   0.12012    0.01989    4.07914    0.03480    5.45570
   0.14014    0.01993    4.08314    0.03488    5.46267
   0.16016    0.01997    4.08700    0.03497    5.46964
   0.18018    0.02001    4.09100    0.03506    5.47675
   0.20020    0.02005    4.09515    0.03515    5.48372
   0.22022    0.02009    4.09915    0.03525    5.49083
   0.24024    0.02013    4.10315    0.03534    5.49780
   0.26026    0.02017    4.10716    0.03543    5.50491
   0.28028    0.02021    4.11116    0.03552    5.51203
   0.30030    0.02025    4.11531    0.03561    5.51914
   0.32032    0.02029    4.11931    0.03570    5.52626
   0.34034    0.02033    4.12331    0.03580    5.53337
   0.36036    0.02037    4.12746    0.03589    5.54064
   0.38038    0.02042    4.13146    0.03598    5.54775
   0.40040    0.02046    4.13561    0.03608    5.55501
   0.42042    0.02050    4.13976    0.03617    5.56228
   0.44044    0.02054    4.14377    0.03627    5.56954
   0.46046    0.02058    4.14792    0.03636    5.57680
   0.48048    0.02062    4.15207    0.03646    5.58406
   0.50050    0.02067    4.15622    0.03655    5.59133
   0.52052    0.02071    4.16037    0.03665    5.59874
   0.54054    0.02075    4.16452    0.03674    5.60600
   0.56056    0.02079    4.16867    0.03684    5.61341
   0.58058    0.02084    4.17282    0.03694    5.62082
   0.60060    0.02088    4.17697    0.03704    5.62824
   0.62062    0.02092    4.18112    0.03713    5.63565
   0.64064    0.02096    4.18542    0.03723    5.64306
   0.66066    0.02101    4.18957    0.03733    5.65047
   0.68068    0.02105    4.19372    0.03743    5.65803
   0.70070    0.02109    4.19802    0.03753    5.66559
   0.72072    0.02114    4.20217    0.03763    5.67300
   0.74074    0.02118    4.20647    0.03773    5.68056
   0.76076    0.02123    4.21076    0.03783    5.68812
   0.78078    0.02127    4.21491    0.03793    5.69568
   0.80080    0.02131    4.21921    0.03803    5.70339
   0.82082    0.02136    4.22351    0.03814    5.71095
   0.84084    0.02140    4.22781    0.03824    5.71865
   0.86086    0.02145    4.23211    0.03834    5.72621
   0.88088    0.02149    4.23641    0.03844    5.73392
   0.90090    0.02154    4.24071    0.03855    5.74163
   0.92092    0.02158    4.24500    0.03865    5.74934
   0.94094    0.02163    4.24930    0.03876    5.75719
   0.96096    0.02167    4.25360    0.03886    5.76490
   0.98098    0.02172    4.25805    0.03897    5.77275
   1.00100    0.02176    4.26235    0.03907    5.78046
   1.02102    0.02181    4.26664    0.03918    5.78832
   1.04104    0.02185    4.27109    0.03929    5.79617
   1.06106    0.02190    4.27539    0.03939    5.80403
   1.08108    0.02195    4.27984    0.03950    5.81189
   1.10110    0.02199    4.28428    0.03961    5.81989
   1.12112    0.02204    4.28858    0.03972    5.82775
   1.14114    0.02208    4.29303    0.03983    5.83575
   1.16116    0.02213    4.29748    0.03993    5.84375
   1.18118    0.02218    4.30192    0.04004    5.85176
   1.20120    0.02223    4.30637    0.04015    5.85976
   1.22122    0.02227    4.31082    0.04027    5.86792
   1.24124    0.02232    4.31526    0.04038    5.87592
   1.26126    0.02237    4.31971    0.04049    5.88407
   1.28128    0.02242    4.32430    0.04060    5.89208
   1.30130    0.02246    4.32875    0.04071    5.90023
   1.32132    0.02251    4.33320    0.04083    5.90838
   1.34134    0.02256    4.33779    0.04094    5.91668
   1.36136    0.02261    4.34224    0.04105    5.92483
   1.38138    0.02266    4.34683    0.04117    5.93299
   1.40140    0.02270    4.35128    0.04128    5.94129
   1.42142    0.02275    4.35588    0.04140    5.94959
   1.44144    0.02280    4.36047    0.04151    5.95789
   1.46146    0.02285    4.36507    0.04163    5.96619
   1.48148    0.02290    4.36966    0.04175    5.97449
   1.50150    0.02295    4.37426    0.04186    5.98294
   1.52152    0.02300    4.37885    0.04198    5.99124
   1.54154    0.02305    4.38345    0.04210    5.99969
   1.56156    0.02310    4.38804    0.04222    6.00814
   1.58158    0.02315    4.39264    0.04234    6.01658
   1.60160    0.02320    4.39723    0.04246    6.02503
   1.62162    0.02325    4.40197    0.04258    6.03363
   1.64164    0.02330    4.40657    0.04270    6.04208
   1.66166    0.02335    4.41131    0.04282    6.05068
   1.68168    0.02340    4.41591    0.04294    6.05927
   1.70170    0.02345    4.42065    0.04307    6.06787
   1.72172    0.02350    4.42539    0.04319    6.07647
   1.74174    0.02356    4.42999    0.04331    6.08521
   1.76176    0.02361    4.43473    0.04344    6.09381
   1.78178    0.02366    4.43947    0.04356    6.10255
   1.80180    0.02371    4.44422    0.04369    6.11130
   1.82182    0.02376    4.44896    0.04381    6.12005
   1.84184    0.02381    4.45370    0.04394    6.12879
   1.86186    0.02387    4.45845    0.04406    6.13768
   1.88188    0.02392    4.46334    0.04419    6.14643
   1.90190    0.02397    4.46808    0.04432    6.15532
   1.92192    0.02403    4.47283    0.04445    6.16422
   1.94194    0.02408    4.47772    0.04458    6.17311
   1.96196    0.02413    4.48261    0.04471    6.18215
   1.98198    0.02419    4.48735    0.04484    6.19104
   2.00200    0.02424    4.49224    0.04497    6.20009
   2.02202    0.02429    4.49713    0.04510    6.20898
   2.04204    0.02435    4.50188    0.04523    6.21802
   2.06206    0.02440    4.50677    0.04536    6.22721
   2.08208    0.02446    4.51166    0.04550    6.23625
   2.10210    0.02451    4.51655    0.04563    6.24544
   2.12212    0.02457    4.52159    0.04576    6.25448
   2.14214    0.02462    4.52648    0.04590    6.26367
   2.16216    0.02468    4.53137    0.04603    6.27286
   2.18218    0.02473    4.53627    0.04617    6.28205
   2.20220    0.02479    4.54131    0.04631    6.29139
   2.22222    0.02484    4.54620    0.04644    6.30073
   2.24224    0.02490    4.55124    0.04658    6.30992
   2.26226    0.02495    4.55628    0.04672    6.31926
   2.28228    0.02501    4.56117    0.04686    6.32875
   2.30230    0.02507    4.56621    0.04700    6.33808
   2.32232    0.02512    4.57125    0.04714    6.34757
   2.34234    0.02518    4.57629    0.04728    6.35691
   2.36236    0.02524    4.58133    0.04742    6.36639
   2.38238    0.02530    4.58637    0.04756    6.37588
   2.40240    0.02535    4.59140    0.04770    6.38552
   2.42242    0.02541    4.59659    0.04785    6.39500
   2.44244    0.02547    4.60163    0.04799    6.40464
   2.46246    0.02553    4.60682    0.04814    6.41427
   2.48248    0.02559    4.61186    0.04828    6.42391
   2.50250    0.02564    4.61705    0.04843    6.43354
   2.52252    0.02570    4.62209    0.04858    6.44332
   2.54254    0.02576    4.62727    0.04872    6.45296
   2.56256    0.02582    4.63246    0.04887    6.46274
   2.58258    0.02588    4.63765    0.04902    6.47252
   2.60260    0.02594    4.64284    0.04917    6.48245
   2.62262    0.02600    4.64803    0.04932    6.49224
   2.64264    0.02606    4.65321    0.04947    6.50217
   2.66266    0.02612    4.65840    0.04962    6.51210
   2.68268    0.02618    4.66374    0.04977    6.52203
   2.70270    0.02624    4.66893    0.04993    6.53196
   2.72272    0.02630    4.67411    0.05008    6.54204
   2.74274    0.02636    4.67945    0.05023    6.55212
   2.76276    0.02642    4.68479    0.05039    6.56220
   2.78278    0.02649    4.68997    0.05054    6.57228
   2.80280    0.02655    4.69531    0.05070    6.58236
   2.82282    0.02661    4.70065    0.05086    6.59259
   2.84284    0.02667    4.70598    0.05102    6.60266
   2.86286    0.02673    4.71132    0.05117    6.61289
   2.88288    0.02680    4.71665    0.05133    6.62327
   2.90290    0.02686    4.72214    0.05149    6.63349
   2.92292    0.02692    4.72748    0.05166    6.64387
   2.94294    0.02699    4.73281    0.05182    6.65425
   2.96296    0.02705    4.73830    0.05198    6.66462
   2.98298    0.02711    4.74363    0.05214    6.67500
   3.00300    0.02718    4.74912    0.05231    6.68537
   3.02302    0.02724    4.75460    0.05247    6.69590
   3.04304    0.02731    4.76008    0.05264    6.70642
   3.06306    0.02737    4.76557    0.05280    6.71695
   3.08308    0.02744    4.77105    0.05297    6.72762
   3.10310    0.02750    4.77654    0.05314    6.73814
   3.12312    0.02757    4.78202    0.05331    6.74881
   3.14314    0.02763    4.78751    0.05348    6.75949
   3.16316    0.02770    4.79299    0.05365    6.77031
   3.18318    0.02777    4.79862    0.05382    6.78098
   3.20320    0.02783    4.80411    0.05399    6.79180
   3.22322    0.02790    4.80974    0.05416    6.80262
   3.24324    0.02797    4.81537    0.05434    6.81344
   3.26326    0.02803    4.82100    0.05451    6.82441
   3.28328    0.02810    4.82664    0.05469    6.83538
   3.30330    0.02817    4.83227    0.05486    6.84635
   3.32332    0.02824    4.83790    0.05504    6.85731
   3.34334    0.02830    4.84353    0.05522    6.86828
   3.36336    0.02837    4.84917    0.05540    6.87940
   3.38338    0.02844    4.85480    0.05557    6.89052
   3.40340    0.02851    4.86058    0.05576    6.90163
   3.42342    0.02858    4.86621    0.05594    6.91290
   3.44344    0.02865    4.87199    0.05612    6.92402
   3.46346    0.02872    4.87777    0.05630    6.93528
   3.48348    0.02879    4.88356    0.05649    6.94655
   3.50350    0.02886    4.88934    0.05667    6.95796
   3.52352    0.02893    4.89512    0.05686    6.96922
   3.54354    0.02900    4.90090    0.05704    6.98064
   3.56356    0.02907    4.90668    0.05723    6.99205
   3.58358    0.02914    4.91246    0.05742    7.00361
   3.60360    0.02921    4.91839    0.05761    7.01503
   3.62362    0.02929    4.92417    0.05780    7.02659
   3.64364    0.02936    4.93010    0.05799    7.03830
   3.66366    0.02943    4.93588    0.05818    7.04986
   3.68368    0.02950    4.94181    0.05838    7.06157
   3.70370    0.02958    4.94774    0.05857    7.07328
   3.72372    0.02965    4.95367    0.05877    7.08499
   3.74374    0.02972    4.95959    0.05896    7.09670
   3.76376    0.02980    4.96552    0.05916    7.10855
   3.78378    0.02987    4.97160    0.05936    7.12041
   3.80380    0.02994    4.97753    0.05956    7.13242
   3.82382    0.03002    4.98361    0.05976    7.14428
   3.84384    0.03009    4.98954    0.05996    7.15628
   3.86386    0.03017    4.99561    0.06016    7.16829
   3.88388    0.03024    5.00169    0.06036    7.18030
   3.90390    0.03032    5.00777    0.06057    7.19245
   3.92392    0.03040    5.01384    0.06077    7.20460
   3.94394    0.03047    5.01992    0.06098    7.21676
   3.96396    0.03055    5.02600    0.06119    7.22906
   3.98398    0.03063    5.03208    0.06140    7.24122
   4.00400    0.03070    5.03830    0.06161    7.25367
   4.02402    0.03078    5.04438    0.06182    7.26597
   4.04404    0.03086    5.05060    0.06203    7.27842
   4.06406    0.03094    5.05668    0.06224    7.29072
   4.08408    0.03102    5.06291    0.06246    7.30332
   4.10410    0.03109    5.06913    0.06267    7.31577
   4.12412    0.03117    5.07536    0.06289    7.32837
   4.14414    0.03125    5.08158    0.06311    7.34097
   4.16416    0.03133    5.08796    0.06332    7.35357
   4.18418    0.03141    5.09418    0.06354    7.36632
   4.20420    0.03149    5.10056    0.06376    7.37906
   4.22422    0.03157    5.10678    0.06399    7.39181
   4.24424    0.03165    5.11316    0.06421    7.40471
   4.26426    0.03174    5.11953    0.06443    7.41760
   4.28428    0.03182    5.12590    0.06466    7.43050
   4.30430    0.03190    5.13228    0.06489    7.44339
   4.32432    0.03198    5.13865    0.06511    7.45644
   4.34434    0.03206    5.14502    0.06534    7.46948
   4.36436    0.03215    5.15140    0.06557    7.48267
   4.38438    0.03223    5.15792    0.06580    7.49572
   4.40440    0.03231    5.16429    0.06604    7.50891
   4.42442    0.03240    5.17081    0.06627    7.52225
   4.44444    0.03248    5.17734    0.06651    7.53544
   4.46446    0.03257    5.18386    0.06674    7.54878
   4.48448    0.03265    5.19038    0.06698    7.56227
   4.50450    0.03274    5.19690    0.06722    7.57561
   4.52452    0.03282    5.20342    0.06746    7.58910
   4.54454    0.03291    5.21009    0.06770    7.60259
   4.56456    0.03300    5.21662    0.06794    7.61622
   4.58458    0.03308    5.22329    0.06819    7.62986
   4.60460    0.03317    5.22996    0.06843    7.64350
   4.62462    0.03326    5.23648    0.06868    7.65728
   4.64464    0.03334    5.24315    0.06893    7.67107
   4.66466    0.03343    5.24982    0.06918    7.68485
   4.68468    0.03352    5.25664    0.06943    7.69864
   4.70470    0.03361    5.26331    0.06968    7.71257
   4.72472    0.03370    5.26998    0.06993    7.72665
   4.74474    0.03379    5.27680    0.07019    7.74058
   4.76476    0.03388    5.28361    0.07045    7.75467
   4.78478    0.03397    5.29043    0.07070    7.76890
   4.80480    0.03406    5.29710    0.07096    7.78298
   4.82482    0.03415    5.30407    0.07122    7.79721
   4.84484    0.03424    5.31089    0.07149    7.81158
   4.86486    0.03433    5.31771    0.07175    7.82581
   4.88488    0.03443    5.32452    0.07201    7.84019
   4.90490    0.03452    5.33149    0.07228    7.85472
   4.92492    0.03461    5.33846    0.07255    7.86924
   4.94494    0.03471    5.34542    0.07282    7.88377
   4.96496    0.03480    5.35224    0.07309    7.89830
   4.98498    0.03489    5.35936    0.07336    7.91297
   5.00500    0.03499    5.36632    0.07364    7.92764
   5.02502    0.03508    5.37329    0.07391    7.94247
   5.04504    0.03518    5.38026    0.07419    7.95729
   5.06506    0.03527    5.38737    0.07447    7.97211
   5.08508    0.03537    5.39449    0.07475    7.98708
   5.10510    0.03547    5.40160    0.07503    8.00205
   5.12512    0.03556    5.40872    0.07531    8.01717
   5.14514    0.03566    5.41583    0.07560    8.03229
   5.16516    0.03576    5.42294    0.07589    8.04741
   5.18518    0.03586    5.43006    0.07617    8.06268
   5.20520    0.03596    5.43732    0.07646    8.07794
   5.22522    0.03605    5.44444    0.07676    8.09321
   5.24524    0.03615    5.45170    0.07705    8.10863
   5.26527    0.03625    5.45896    0.07734    8.12404
   5.28528    0.03635    5.46623    0.07764    8.13960
   5.30531    0.03645    5.47349    0.07794    8.15517
   5.32533    0.03656    5.48075    0.07824    8.17073
   5.34535    0.03666    5.48816    0.07854    8.18644
   5.36537    0.03676    5.49543    0.07885    8.20216
   5.38539    0.03686    5.50284    0.07915    8.21802
   5.40541    0.03696    5.51025    0.07946    8.23388
   5.42543    0.03707    5.51766    0.07977    8.24988
   5.44545    0.03717    5.52507    0.08008    8.26589
   5.46547    0.03728    5.53248    0.08039    8.28190
   5.48549    0.03738    5.54004    0.08071    8.29806
   5.50551    0.03749    5.54745    0.08102    8.31421
   5.52553    0.03759    5.55501    0.08134    8.33052
   5.54555    0.03770    5.56257    0.08166    8.34682
   5.56557    0.03780    5.57013    0.08198    8.36313
   5.58559    0.03791    5.57769    0.08231    8.37958
   5.60561    0.03802    5.58525    0.08263    8.39603
   5.62563    0.03813    5.59296    0.08296    8.41263
   5.64565    0.03824    5.60052    0.08329    8.42938
   5.66567    0.03834    5.60823    0.08362    8.44598
   5.68569    0.03845    5.61593    0.08396    8.46273
   5.70571    0.03856    5.62364    0.08429    8.47963
   5.72573    0.03867    5.63135    0.08463    8.49653
   5.74575    0.03878    5.63906    0.08497    8.51358
   5.76577    0.03890    5.64691    0.08531    8.53047
   5.78579    0.03901    5.65462    0.08565    8.54767
   5.80581    0.03912    5.66248    0.08600    8.56486
   5.82583    0.03923    5.67033    0.08635    8.58206
   5.84585    0.03935    5.67819    0.08670    8.59940
   5.86587    0.03946    5.68604    0.08705    8.61674
   5.88589    0.03958    5.69405    0.08741    8.63423
   5.90591    0.03969    5.70190    0.08776    8.65172
   5.92593    0.03981    5.70991    0.08812    8.66936
   5.94595    0.03992    5.71791    0.08848    8.68700
   5.96597    0.04004    5.72592    0.08885    8.70479
   5.98599    0.04015    5.73392    0.08921    8.72257
   6.00601    0.04027    5.74192    0.08958    8.74051
   6.02603    0.04039    5.75008    0.08995    8.75844
   6.04605    0.04051    5.75808    0.09032    8.77653
   6.06607    0.04063    5.76623    0.09070    8.79461
   6.08609    0.04075    5.77439    0.09108    8.81284
   6.10611    0.04087    5.78254    0.09145    8.83107
   6.12613    0.04099    5.79069    0.09184    8.84945
   6.14615    0.04111    5.79899    0.09222    8.86783
   6.16617    0.04123    5.80714    0.09261    8.88636
   6.18619    0.04135    5.81544    0.09300    8.90489
   6.20621    0.04148    5.82374    0.09339    8.92356
   6.22623    0.04160    5.83204    0.09378    8.94239
   6.24625    0.04173    5.84049    0.09418    8.96107
   6.26627    0.04185    5.84879    0.09458    8.98004
   6.28629    0.04198    5.85724    0.09498    8.99901
   6.30631    0.04210    5.86554    0.09538    9.01798
   6.32633    0.04223    5.87399    0.09579    9.03710
   6.34635    0.04236    5.88244    0.09620    9.05637
   6.36637    0.04248    5.89104    0.09661    9.07564
   6.38639    0.04261    5.89949    0.09703    9.09506
   6.40641    0.04274    5.90808    0.09745    9.11448
   6.42643    0.04287    5.91668    0.09787    9.13404
   6.44645    0.04300    5.92528    0.09829    9.15376
   6.46647    0.04313    5.93388    0.09872    9.17347
   6.48649    0.04326    5.94247    0.09914    9.19319
   6.50651    0.04339    5.95122    0.09957    9.21305
   6.52653    0.04353    5.95981    0.10001    9.23306
   6.54655    0.04366    5.96856    0.10045    9.25322
   6.56657    0.04379    5.97730    0.10089    9.27323
   6.58659    0.04393    5.98605    0.10133    9.29353
   6.60661    0.04406    5.99494    0.10177    9.31384
   6.62663    0.04420    6.00369    0.10222    9.33430
   6.64665    0.04434    6.01258    0.10267    9.35475
   6.66667    0.04447    6.02148    0.10313    9.37535
   6.68669    0.04461    6.03037    0.10359    9.39610
   6.70671    0.04475    6.03941    0.10405    9.41686
   6.72673    0.04489    6.04830    0.10451    9.43776
   6.74675    0.04503    6.05735    0.10498    9.45866
   6.76677    0.04517    6.06639    0.10545    9.47970
   6.78679    0.04531    6.07543    0.10592    9.50090
   6.80681    0.04545    6.08447    0.10640    9.52210
   6.82683    0.04559    6.09366    0.10688    9.54344
   6.84685    0.04574    6.10270    0.10736    9.56493
   6.86687    0.04588    6.11189    0.10785    9.58642
   6.88689    0.04603    6.12108    0.10834    9.60807
   6.90691    0.04617    6.13042    0.10883    9.62986
   6.92693    0.04632    6.13961    0.10933    9.65164
   6.94695    0.04646    6.14895    0.10983    9.67358
   6.96697    0.04661    6.15829    0.11033    9.69567
   6.98699    0.04676    6.16762    0.11084    9.71775
   7.00701    0.04691    6.17696    0.11135    9.73999
   7.02703    0.04706    6.18630    0.11186    9.76237
   7.04705    0.04721    6.19579    0.11238    9.78475
   7.06707    0.04736    6.20527    0.11290    9.80728
   7.08709    0.04751    6.21476    0.11342    9.82996
   7.10711    0.04766    6.22425    0.11395    9.85264
   7.12713    0.04782    6.23388    0.11448    9.87561
   7.14715    0.04797    6.24337    0.11502    9.89859
   7.16717    0.04813    6.25300    0.11556    9.92156
   7.18719    0.04828    6.26264    0.11610    9.94483
   7.20721    0.04844    6.27242    0.11665    9.96810
   7.22723    0.04860    6.28205    0.11720    9.99152
   7.24725    0.04876    6.29184    0.11776   10.01494
   7.26727    0.04891    6.30162    0.11831   10.03866
   7.28729    0.04907    6.31140    0.11888   10.06237
   7.30731    0.04923    6.32119    0.11944   10.08624
   7.32733    0.04940    6.33112    0.12002   10.11010
   7.34735    0.04956    6.34105    0.12059   10.13426
   7.36737    0.04972    6.35098    0.12117   10.15842
   7.38739    0.04989    6.36091    0.12175   10.18273
   7.40741    0.05005    6.37084    0.12234   10.20719
   7.42743    0.05022    6.38092    0.12293   10.23180
   7.44745    0.05038    6.39100    0.12353   10.25640
   7.46747    0.05055    6.40108    0.12413   10.28115
   7.48749    0.05072    6.41131    0.12474   10.30606
   7.50751    0.05089    6.42139    0.12535   10.33111
   7.52753    0.05106    6.43161    0.12596   10.35630
   7.54755    0.05123    6.44184    0.12658   10.38150
   7.56757    0.05140    6.45207    0.12720   10.40685
   7.58759    0.05157    6.46244    0.12783   10.43249
   7.60761    0.05175    6.47282    0.12846   10.45813
   7.62763    0.05192    6.48320    0.12910   10.48392
   7.64765    0.05210    6.49357    0.12974   10.50972
   7.66767    0.05227    6.50395    0.13039   10.53580
   7.68769    0.05245    6.51447    0.13104   10.56189
   7.70771    0.05263    6.52499    0.13170   10.58827
   7.72773    0.05281    6.53552    0.13236   10.61466
   7.74775    0.05299    6.54619    0.13302   10.64119
   7.76777    0.05317    6.55671    0.13370   10.66787
   7.78779    0.05335    6.56739    0.13437   10.69470
   7.80781    0.05353    6.57821    0.13505   10.72168
   7.82783    0.05372    6.58888    0.13574   10.74880
   7.84785    0.05390    6.59970    0.13643   10.77608
   7.86787    0.05409    6.61052    0.13713   10.80335
   7.88789    0.05428    6.62134    0.13784   10.83092
   7.90791    0.05446    6.63216    0.13854   10.85864
   7.92793    0.05465    6.64313    0.13926   10.88635
   7.94795    0.05484    6.65410    0.13998   10.91437
   7.96797    0.05503    6.66507    0.14070   10.94238
   7.98799    0.05523    6.67604    0.14143   10.97069
   8.00801    0.05542    6.68715    0.14217   10.99901
   8.02803    0.05561    6.69827    0.14291   11.02761
   8.04805    0.05581    6.70939    0.14366   11.05622
   8.06807    0.05601    6.72065    0.14442   11.08498
   8.08809    0.05620    6.73192    0.14518   11.11403
   8.10811    0.05640    6.74318    0.14594   11.14323
   8.12813    0.05660    6.75445    0.14671   11.17243
   8.14815    0.05680    6.76571    0.14749   11.20193
   8.16817    0.05700    6.77712    0.14828   11.23142
   8.18819    0.05721    6.78854    0.14907   11.26122
   8.20821    0.05741    6.80010    0.14987   11.29116
   8.22823    0.05762    6.81151    0.15067   11.32125
   8.24825    0.05782    6.82307    0.15148   11.35148
   8.26827    0.05803    6.83478    0.15230   11.38187
   8.28829    0.05824    6.84635    0.15312   11.41240
   8.30831    0.05845    6.85806    0.15395   11.44309
   8.32833    0.05866    6.86976    0.15479   11.47406
   8.34835    0.05887    6.88147    0.15563   11.50504
   8.36837    0.05909    6.89333    0.15648   11.53632
   8.38839    0.05930    6.90519    0.15734   11.56774
   8.40841    0.05952    6.91705    0.15821   11.59931
   8.42843    0.05973    6.92905    0.15908   11.63103
   8.44845    0.05995    6.94106    0.15996   11.66290
   8.46847    0.06017    6.95307    0.16085   11.69507
   8.48849    0.06039    6.96507    0.16174   11.72738
   8.50851    0.06062    6.97723    0.16264   11.75984
   8.52853    0.06084    6.98938    0.16355   11.79245
   8.54855    0.06106    7.00154    0.16447   11.82521
   8.56857    0.06129    7.01384    0.16539   11.85826
   8.58859    0.06152    7.02614    0.16632   11.89147
   8.60861    0.06175    7.03844    0.16727   11.92482
   8.62863    0.06198    7.05075    0.16821   11.95846
   8.64865    0.06221    7.06320    0.16917   11.99211
   8.66867    0.06244    7.07565    0.17014   12.02605
   8.68869    0.06268    7.08825    0.17111   12.06029
   8.70871    0.06291    7.10085    0.17209   12.09453
   8.72873    0.06315    7.11345    0.17308   12.12907
   8.74875    0.06339    7.12605    0.17408   12.16390
   8.76877    0.06363    7.13879    0.17509   12.19888
   8.78879    0.06387    7.15154    0.17610   12.23401
   8.80881    0.06411    7.16429    0.17713   12.26929
   8.82883    0.06436    7.17718    0.17816   12.30486
   8.84885    0.06460    7.19008    0.17921   12.34059
   8.86887    0.06485    7.20312    0.18026   12.37661
   8.88889    0.06510    7.21602    0.18132   12.41277
   8.90891    0.06535    7.22906    0.18239   12.44909
   8.92893    0.06560    7.24225    0.18347   12.48570
   8.94895    0.06585    7.25545    0.18456   12.52261
   8.96897    0.06611    7.26864    0.18566   12.55966
   8.98899    0.06636    7.28183    0.18677   12.59687
   9.00901    0.06662    7.29517    0.18789   12.63437
   9.02903    0.06688    7.30851    0.18903   12.67202
   9.04905    0.06714    7.32200    0.19017   12.70996
   9.06907    0.06740    7.33534    0.19132   12.74820
   9.08909    0.06767    7.34898    0.19248   12.78659
   9.10911    0.06793    7.36246    0.19365   12.82528
   9.12913    0.06820    7.37610    0.19483   12.86412
   9.14915    0.06847    7.38974    0.19603   12.90325
   9.16917    0.06874    7.40352    0.19723   12.94253
   9.18919    0.06901    7.41731    0.19845   12.98210
   9.20921    0.06929    7.43109    0.19968   13.02197
   9.22923    0.06956    7.44502    0.20092   13.06200
   9.24925    0.06984    7.45896    0.20217   13.10231
   9.26927    0.07012    7.47304    0.20343   13.14293
   9.28929    0.07040    7.48712    0.20470   13.18384
   9.30931    0.07068    7.50120    0.20599   13.22489
   9.32933    0.07097    7.51543    0.20729   13.26625
   9.34935    0.07126    7.52966    0.20860   13.30790
   9.36937    0.07154    7.54389    0.20992   13.34970
   9.38939    0.07183    7.55827    0.21126   13.39180
   9.40941    0.07213    7.57265    0.21261   13.43419
   9.42943    0.07242    7.58717    0.21397   13.47688
   9.44945    0.07272    7.60170    0.21535   13.51986
   9.46947    0.07301    7.61622    0.21673   13.56314
   9.48949    0.07331    7.63090    0.21814   13.60657
   9.50951    0.07362    7.64557    0.21955   13.65045
   9.52953    0.07392    7.66039    0.22098   13.69447
   9.54955    0.07422    7.67522    0.22243   13.73879
   9.56957    0.07453    7.69004    0.22388   13.78355
   9.58959    0.07484    7.70501    0.22536   13.82846
   9.60961    0.07515    7.71998    0.22684   13.87367
   9.62963    0.07547    7.73510    0.22834   13.91918
   9.64965    0.07578    7.75022    0.22986   13.96513
   9.66967    0.07610    7.76549    0.23139   14.01123
   9.68969    0.07642    7.78075    0.23294   14.05762
   9.70971    0.07674    7.79602    0.23450   14.10446
   9.72973    0.07707    7.81144    0.23608   14.15145
   9.74975    0.07739    7.82685    0.23768   14.19888
   9.76977    0.07772    7.84241    0.23929   14.24661
   9.78979    0.07805    7.85798    0.24092   14.29463
   9.80981    0.07839    7.87369    0.24256   14.34310
   9.82983    0.07872    7.88940    0.24422   14.39172
   9.84985    0.07906    7.90511    0.24590   14.44078
   9.86987    0.07940    7.92097    0.24760   14.49014
   9.88989    0.07974    7.93698    0.24931   14.53979
   9.90991    0.08009    7.95299    0.25105   14.58989
   9.92993    0.08043    7.96900    0.25280   14.64029
   9.94995    0.08078    7.98516    0.25456   14.69113
   9.96997    0.08113    8.00131    0.25635   14.74212
   9.98999    0.08149    8.01762    0.25816   14.79370
  10.01001    0.08184    8.03392    0.25998   14.84543
  10.03003    0.08220    8.05037    0.26183   14.89761
  10.05005    0.08256    8.06683    0.26369   14.95023
  10.07007    0.08293    8.08343    0.26558   15.00314
  10.09009    0.08329    8.10003    0.26748   15.05651
  10.11011    0.08366    8.11678    0.26941   15.11016
  10.13013    0.08404    8.13353    0.27136   15.16426
  10.15015    0.08441    8.15042    0.27332   15.21881
  10.17017    0.08479    8.16732    0.27531   15.27365
  10.19019    0.08517    8.18437    0.27733   15.32894
  10.21021    0.08555    8.20142    0.27936   15.38468
  10.23023    0.08593    8.21861    0.28142   15.44070
  10.25025    0.08632    8.23580    0.28350   15.49732
  10.27027    0.08671    8.25315    0.28560   15.55424
  10.29029    0.08711    8.27049    0.28772   15.61161
  10.31031    0.08750    8.28798    0.28987   15.66927
  10.33033    0.08790    8.30562    0.29205   15.72752
  10.35035    0.08830    8.32326    0.29425   15.78621
  10.37037    0.08871    8.34089    0.29647   15.84521
  10.39039    0.08912    8.35868    0.29872   15.90479
  10.41041    0.08953    8.37662    0.30100   15.96483
  10.43043    0.08994    8.39455    0.30330   16.02530
  10.45045    0.09036    8.41263    0.30563   16.08607
  10.47047    0.09078    8.43072    0.30798   16.14759
  10.49049    0.09120    8.44895    0.31036   16.20940
  10.51051    0.09163    8.46718    0.31277   16.27165
  10.53053    0.09206    8.48556    0.31521   16.33450
  10.55055    0.09249    8.50409    0.31768   16.39779
  10.57057    0.09293    8.52262    0.32018   16.46167
  10.59059    0.09337    8.54129    0.32270   16.52586
  10.61061    0.09381    8.55997    0.32526   16.59078
  10.63063    0.09425    8.57879    0.32785   16.65600
  10.65065    0.09470    8.59777    0.33046   16.72196
  10.67067    0.09516    8.61674    0.33311   16.78821
  10.69069    0.09561    8.63586    0.33580   16.85521
  10.71071    0.09607    8.65498    0.33851   16.92265
  10.73073    0.09654    8.67425    0.34126   16.99054
  10.75075    0.09700    8.69367    0.34404   17.05917
  10.77077    0.09747    8.71309    0.34686   17.12824
  10.79079    0.09795    8.73265    0.34971   17.19791
  10.81081    0.09842    8.75237    0.35259   17.26816
  10.83083    0.09890    8.77208    0.35552   17.33902
  10.85085    0.09939    8.79194    0.35847   17.41031
  10.87087    0.09988    8.81180    0.36147   17.48235
  10.89089    0.10037    8.83181    0.36450   17.55498
  10.91091    0.10087    8.85197    0.36758   17.62820
  10.93093    0.10137    8.87228    0.37069   17.70202
  10.95095    0.10187    8.89259    0.37384   17.77643
  10.97097    0.10238    8.91304    0.37703   17.85158
  10.99099    0.10289    8.93350    0.38027   17.92732
  11.01101    0.10341    8.95425    0.38354   18.00365
  11.03103    0.10393    8.97500    0.38686   18.08073
  11.05105    0.10446    8.99575    0.39022   18.15840
  11.07107    0.10499    9.01680    0.39363   18.23681
  11.09109    0.10552    9.03785    0.39708   18.31596
  11.11111    0.10606    9.05904    0.40057   18.39571
  11.13113    0.10660    9.08024    0.40412   18.47619
  11.15115    0.10715    9.10173    0.40771   18.55727
  11.17117    0.10770    9.12322    0.41135   18.63924
  11.19119    0.10825    9.14472    0.41504   18.72195
  11.21121    0.10881    9.16650    0.41877   18.80525
  11.23123    0.10938    9.18829    0.42256   18.88944
  11.25125    0.10995    9.21023    0.42640   18.97423
  11.27127    0.11052    9.23232    0.43030   19.05990
  11.29129    0.11110    9.25455    0.43424   19.14647
  11.31131    0.11169    9.27678    0.43825   19.23362
  11.33133    0.11227    9.29917    0.44231   19.32167
  11.35135    0.11287    9.32170    0.44642   19.41060
  11.37137    0.11347    9.34437    0.45059   19.50028
  11.39139    0.11407    9.36720    0.45483   19.59084
  11.41141    0.11468    9.39003    0.45912   19.68215
  11.43143    0.11530    9.41300    0.46347   19.77449
  11.45145    0.11592    9.43613    0.46789   19.86758
  11.47147    0.11654    9.45940    0.47237   19.96155
  11.49149    0.11717    9.48282    0.47691   20.05642
  11.51151    0.11781    9.50638    0.48152   20.15232
  11.53153    0.11845    9.52995    0.48620   20.24911
  11.55155    0.11910    9.55382    0.49095   20.34679
  11.57157    0.11975    9.57768    0.49577   20.44536
  11.59159    0.12041    9.60169    0.50066   20.54497
  11.61161    0.12107    9.62585    0.50562   20.64561
  11.63163    0.12174    9.65016    0.51066   20.74729
  11.65165    0.12242    9.67462    0.51577   20.84986
  11.67167    0.12310    9.69908    0.52096   20.95347
  11.69169    0.12379    9.72383    0.52623   21.05812
  11.71171    0.12448    9.74873    0.53158   21.16395
  11.73173    0.12519    9.77363    0.53701   21.27082
  11.75175    0.12589    9.79883    0.54253   21.37873
  11.77177    0.12661    9.82403    0.54813   21.48767
  11.79179    0.12733    9.84952    0.55382   21.59781
  11.81181    0.12805    9.87502    0.55960   21.70912
  11.83183    0.12879    9.90066    0.56547   21.82162
  11.85185    0.12953    9.92660    0.57144   21.93531
  11.87187    0.13027    9.95254    0.57750   22.05004
  11.89189    0.13103    9.97863    0.58365   22.16625
  11.91191    0.13179   10.00501    0.58991   22.28349
  11.93193    0.13256   10.03139    0.59627   22.40207
  11.95195    0.13333   10.05808    0.60273   22.52184
  11.97197    0.13412   10.08476    0.60930   22.64308
  11.99199    0.13491   10.11173    0.61597   22.76552
  12.01201    0.13570   10.13886    0.62276   22.88929
  12.03203    0.13651   10.16598    0.62966   23.01454
  12.05205    0.13732   10.19341    0.63668   23.14112
  12.07207    0.13814   10.22097    0.64381   23.26904
  12.09209    0.13897   10.24869    0.65107   23.39844
  12.11211    0.13981   10.27656    0.65845   23.52932
  12.13213    0.14065   10.30472    0.66596   23.66168
  12.15215    0.14151   10.33288    0.67360   23.79553
  12.17217    0.14237   10.36134    0.68136   23.93101
  12.19219    0.14324   10.38995    0.68927   24.06797
  12.21221    0.14412   10.41856    0.69732   24.20641
  12.23223    0.14501   10.44761    0.70550   24.34663
  12.25225    0.14590   10.47666    0.71383   24.48848
  12.27227    0.14681   10.50601    0.72232   24.63196
  12.29229    0.14772   10.53536    0.73095   24.77722
  12.31231    0.14865   10.56500    0.73974   24.92411
  12.33233    0.14958   10.59494    0.74869   25.07293
  12.35235    0.15052   10.62489    0.75781   25.22338
  12.37237    0.15147   10.65512    0.76709   25.37575
  12.39239    0.15243   10.68551    0.77655   25.52991
  12.41241    0.15341   10.71619    0.78618   25.68613
  12.43243    0.15439   10.74688    0.79600   25.84414
  12.45245    0.15538   10.77785    0.80600   26.00422
  12.47247    0.15638   10.80913    0.81619   26.16623
  12.49249    0.15739   10.84055    0.82657   26.33032
  12.51251    0.15842   10.87213    0.83716   26.49663
  12.53253    0.15945   10.90385    0.84795   26.66486
  12.55255    0.16050   10.93586    0.85896   26.83547
  12.57257    0.16155   10.96817    0.87018   27.00815
  12.59259    0.16262   11.00049    0.88162   27.18306
  12.61261    0.16370   11.03325    0.89329   27.36033
  12.63263    0.16479   11.06600    0.90519   27.53998
  12.65265    0.16589   11.09921    0.91734   27.72200
  12.67267    0.16701   11.13241    0.92973   27.90654
  12.69269    0.16814   11.16591    0.94238   28.09345
  12.71271    0.16927   11.19970    0.95529   28.28303
  12.73273    0.17043   11.23365    0.96847   28.47513
  12.75275    0.17159   11.26789    0.98192   28.66990
  12.77277    0.17277   11.30242    0.99565   28.86733
  12.79279    0.17396   11.33711    1.00968   29.06758
  12.81281    0.17516   11.37194    1.02401   29.27065
  12.83283    0.17638   11.40722    1.03864   29.47653
  12.85285    0.17761   11.44249    1.05360   29.68538
  12.87287    0.17886   11.47822    1.06888   29.89734
  12.89289    0.18012   11.51409    1.08449   30.11227
  12.91291    0.18139   11.55025    1.10046   30.33046
  12.93293    0.18268   11.58672    1.11678   30.55176
  12.95295    0.18398   11.62333    1.13346   30.77632
  12.97297    0.18530   11.66038    1.15053   31.00443
  12.99299    0.18664   11.69759    1.16799   31.23581
  13.01301    0.18799   11.73494    1.18584   31.47075
  13.03303    0.18935   11.77274    1.20412   31.70924
  13.05305    0.19073   11.81083    1.22282   31.95144
  13.07307    0.19213   11.84907    1.24196   32.19749
  13.09309    0.19355   11.88761    1.26155   32.44725
  13.11311    0.19498   11.92645    1.28162   32.70101
  13.13313    0.19643   11.96573    1.30217   32.95877
  13.15315    0.19790   12.00515    1.32322   33.22084
  13.17317    0.19938   12.04488    1.34479   33.48690
  13.19319    0.20089   12.08490    1.36689   33.75741
  13.21321    0.20241   12.12522    1.38955   34.03251
  13.23323    0.20395   12.16583    1.41277   34.31192
  13.25325    0.20551   12.20689    1.43658   34.59621
  13.27327    0.20709   12.24809    1.46101   34.88525
  13.29329    0.20869   12.28960    1.48606   35.17918
  13.31331    0.21031   12.33154    1.51177   35.47815
  13.33333    0.21195   12.37379    1.53816   35.78216
  13.35335    0.21361   12.41633    1.56524   36.09165
  13.37337    0.21530   12.45931    1.59305   36.40663
  13.39339    0.21700   12.50245    1.62161   36.72709
  13.41341    0.21873   12.54603    1.65095   37.05333
  13.43343    0.22048   12.59005    1.68109   37.38550
  13.45345    0.22225   12.63422    1.71207   37.72375
  13.47347    0.22405   12.67898    1.74392   38.06823
  13.49349    0.22587   12.72390    1.77667   38.41907
  13.51351    0.22771   12.76925    1.81036   38.77644
  13.53353    0.22958   12.81505    1.84502   39.14063
  13.55355    0.23148   12.86115    1.88068   39.51193
  13.57357    0.23340   12.90755    1.91740   39.89035
  13.59359    0.23534   12.95453    1.95520   40.27603
  13.61361    0.23732   13.00182    1.99414   40.66942
  13.63363    0.23932   13.04940    2.03426   41.07066
  13.65365    0.24134   13.09742    2.07560   41.47991
  13.67367    0.24340   13.14604    2.11823   41.89761
  13.69369    0.24549   13.19480    2.16218   42.32375
  13.71371    0.24760   13.24416    2.20753   42.75879
  13.73373    0.24975   13.29397    2.25432   43.20287
  13.75375    0.25192   13.34407    2.30262   43.65644
  13.77377    0.25413   13.39461    2.35249   44.11964
  13.79379    0.25637   13.44575    2.40401   44.59292
  13.81381    0.25864   13.49718    2.45725   45.07658
  13.83383    0.26095   13.54921    2.51228   45.57091
  13.85385    0.26329   13.60153    2.56919   46.07635
  13.87387    0.26566   13.65445    2.62806   46.59321
  13.89389    0.26807   13.70781    2.68898   47.12193
  13.91391    0.27051   13.76162    2.75206   47.66280
  13.93393    0.27300   13.81601    2.81739   48.21642
  13.95395    0.27552   13.87086    2.88508   48.78323
  13.97397    0.27808   13.92629    2.95525   49.36353
  13.99399    0.28067   13.98203    3.02802   49.95791
  14.01401    0.28331   14.03850    3.10351   50.56697
  14.03403    0.28599   14.09542    3.18188   51.19114
  14.05405    0.28871   14.15278    3.26326   51.83117
  14.07407    0.29148   14.21088    3.34781   52.48737
  14.09409    0.29429   14.26943    3.43570   53.16060
  14.11411    0.29714   14.32857    3.52711   53.85147
  14.13413    0.30004   14.38816    3.62222   54.56073
  14.15415    0.30299   14.44849    3.72126   55.28896
  14.17417    0.30598   14.50941    3.82441   56.03704
  14.19419    0.30902   14.57092    3.93193   56.80603
  14.21421    0.31212   14.63303    4.04405   57.59637
  14.23423    0.31526   14.69573    4.16105   58.40908
  14.25425    0.31846   14.75902    4.28322   59.24551
  14.27427    0.32172   14.82305    4.41086   60.10611
  14.29429    0.32502   14.88768    4.54430   60.99249
  14.31431    0.32839   14.95290    4.68391   61.90541
  14.33433    0.33181   15.01900    4.83005   62.84634
  14.35435    0.33529   15.08556    4.98317   63.81647
  14.37437    0.33884   15.15300    5.14369   64.81728
  14.39439    0.34244   15.22104    5.31210   65.84996
  14.41441    0.34611   15.28996    5.48895   66.91644
  14.43443    0.34985   15.35948    5.67477   68.01819
  14.45445    0.35365   15.42974    5.87021   69.15685
  14.47447    0.35753   15.50088    6.07594   70.33464
  14.49449    0.36147   15.57262    6.29268   71.55334
  14.51451    0.36549   15.64540    6.52125   72.81533
  14.53453    0.36958   15.71877    6.76249   74.12252
  14.55455    0.37375   15.79303    7.01738   75.47789
  14.57457    0.37799   15.86818    7.28698   76.88380
  14.59459    0.38232   15.94407    7.57240   78.34322
  14.61461    0.38673   16.02100    7.87493   79.85911
  14.63463    0.39123   16.09867    8.19597   81.43518
  14.65465    0.39581   16.17738    8.53702   83.07455
  14.67467    0.40048   16.25683    8.89979   84.78120
  14.69469    0.40525   16.33746    9.28620   86.55975
  14.71471    0.41011   16.41884    9.69826   88.41418
  14.73473    0.41507   16.50125   10.13837   90.35000
  14.75475    0.42013   16.58470   10.60905   92.37193
  14.77477    0.42530   16.66919   11.11322   94.48636
  14.79480    0.43057   16.75471   11.65415   96.69950
  14.81481    0.43595   16.84128   12.23541   99.01803
   14.8348     0.4414    16.9289    12.8611   101.4499
   14.8549     0.4471    17.0175    13.5360   104.0037
   14.8749     0.4528    17.1075    14.2652   106.6881
   14.8949     0.4586    17.1985    15.0547   109.5135
   14.9149     0.4646    17.2907    15.9113   112.4909
   14.9349     0.4707    17.3841    16.8427   115.6328
   14.9550     0.4770    17.4786    17.8579   118.9529
   14.9750     0.4834    17.5745    18.9671   122.4660
   14.9950     0.4899    17.6718    20.1823   126.1892
   15.0150     0.4966    17.7703    21.5173   130.1416
   15.0350     0.5034    17.8701    22.9880   134.3437
   15.0551     0.5104    17.9713    24.6135   138.8194
   15.0751     0.5176    18.0739    26.4157   143.5948
   15.0951     0.5249    18.1780    28.4211   148.6998
   15.1151     0.5325    18.2837    30.6612   154.1682
   15.1351     0.5402    18.3907    33.1730   160.0372
   15.1552     0.5480    18.4992    36.0018   166.3499
   15.1752     0.5561    18.6094    39.2025   173.1554
   15.1952     0.5644    18.7212    42.8412   180.5075
   15.2152     0.5729    18.8347    47.0001   188.4686
   15.2352     0.5816    18.9499    51.7810   197.1096
   15.2553     0.5905    19.0669    57.3099   206.5083
   15.2753     0.5997    19.1856    63.7471   216.7533
   15.2953     0.6091    19.3061    71.2938   227.9398
   15.3153     0.6187    19.4287    80.2099   240.1714
   15.3353     0.6286    19.5530    90.8314   253.5553
   15.3554     0.6388    19.6795   103.5934   268.1881
   15.3754     0.6493    19.8080   119.0713   284.1452
   15.3954     0.6601    19.9384   138.0260   301.4445
   15.4154     0.6711    20.0712   161.4628   319.9803
   15.4354     0.6825    20.2061   190.7193   339.4213
   15.4555     0.6942    20.3434   227.5315   359.0005
   15.4755     0.7063    20.4830   274.0933   377.1786
   15.4955     0.7187    20.6250   332.9469   391.0634
   15.5155     0.7314    20.7695   406.4380   395.5523
   15.5355     0.7446    20.9166   495.2671   382.3870
   15.5556     0.7582    21.0664   595.3730   340.0431
   15.5756     0.7722    21.2188   693.4854   256.8951
   15.5956     0.7866    21.3741   765.5784   130.1132
   15.6156     0.8015    21.5323   785.9906   -23.7941
   15.6356     0.8169    21.6934   746.1517  -171.7973
   15.6557     0.8328    21.8576   662.2495  -284.7436
   15.6757     0.8492    22.0251   561.2856  -353.2657
   15.6957     0.8662    22.1959   464.0248  -384.4509
   15.7157     0.8838    22.3701   380.1821  -390.5789
   15.7357     0.9020    22.5478   311.7894  -382.2035
   15.7558     0.9208    22.7291   257.3361  -366.4436
   15.7758     0.9403    22.9142   214.3001  -347.5506
   15.7958     0.9605    23.1033   180.2370  -327.8883
   15.8158     0.9814    23.2963   153.0989  -308.6839
   15.8358     1.0031    23.4936   131.2936  -290.5314
   15.8559     1.0257    23.6953   113.6030  -273.6690
   15.8759     1.0491    23.9015    99.1088  -258.1494
   15.8959     1.0735    24.1123    87.1219  -243.9342
   15.9159     1.0988    24.3281    77.1173  -230.9368
   15.9359     1.1251    24.5490    68.6948  -219.0536
   15.9560     1.1526    24.7750    61.5486  -208.1808
   15.9760     1.1812    25.0067    55.4388  -198.2155
   15.9960     1.2110    25.2440    50.1800  -189.0656
   16.0160     1.2421    25.4872    45.6240  -180.6457
   16.0360     1.2746    25.7367    41.6531  -172.8792
   16.0561     1.3085    25.9927    38.1736  -165.7000
   16.0761     1.3441    26.2555    35.1087  -159.0479
   16.0961     1.3812    26.5254    32.3958  -152.8696
   16.1161     1.4202    26.8027    29.9843  -147.1198
   16.1361     1.4611    27.0877    27.8313  -141.7564
   16.1562     1.5040    27.3811    25.9021  -136.7439
   16.1762     1.5490    27.6829    24.1669  -132.0497
   16.1962     1.5964    27.9935    22.6008  -127.6447
   16.2162     1.6463    28.3137    21.1831  -123.5044
   16.2362     1.6989    28.6438    19.8956  -119.6055
   16.2563     1.7544    28.9844    18.7232  -115.9275
   16.2763     1.8131    29.3359    17.6529  -112.4529
   16.2963     1.8751    29.6990    16.6732  -109.1650
   16.3163     1.9408    30.0746    15.7743  -106.0490
   16.3363     2.0104    30.4630    14.9480  -103.0921
   16.3564     2.0844    30.8652    14.1865  -100.2817
  16.37638    2.16313   31.28191   13.48366  -97.60760
  16.39639    2.24696   31.71428   12.83364  -95.05969
  16.41642    2.33641   32.16296   12.23139  -92.62873
  16.43644    2.43200   32.62927   11.67261  -90.30694
  16.45646    2.53435   33.11426   11.15334  -88.08676
  16.47648    2.64414   33.61926   10.67005  -85.96107
  16.49650    2.76212   34.14546   10.21976  -83.92394
  16.51652    2.88919   34.69478    9.79963  -81.96938
  16.53654    3.02633   35.26856    9.40729  -80.09227
  16.55655    3.17468   35.86887    9.04049  -78.28764
  16.57658    3.33557   36.49763    8.69726  -76.55066
  16.59660    3.51046   37.15723    8.37588  -74.87750
  16.61662    3.70111   37.85004    8.07475  -73.26408
  16.63664    3.90955   38.57901    7.79242  -71.70668
  16.65666    4.13811   39.34711    7.52767  -70.20206
  16.67668    4.38958   40.15789    7.27931  -68.74686
  16.69670    4.66716   41.01537    7.04638  -67.33828
  16.71671    4.97474   41.92384    6.82792  -65.97343
  16.73674    5.31690   42.88834    6.62313  -64.64956
  16.75676    5.69910   43.91435    6.43131  -63.36431
  16.77678    6.12797   45.00810    6.25183  -62.11529
  16.79680    6.61158   46.17685    6.08412  -60.90007
  16.81682    7.15967   47.42861    5.92775  -59.71665
  16.83684    7.78435   48.77226    5.78234  -58.56287
  16.85686    8.50068   50.21819    5.64756  -57.43658
  16.87688    9.32730   51.77766    5.52322  -56.33609
  16.89690   10.28802   53.46342    5.40917  -55.25924
  16.91692   11.41283   55.28896    5.30538  -54.20432
  16.93694   12.74049   57.26909    5.21190  -53.16942
  16.95696   14.32136   59.41835    5.12889  -52.15245
  16.97698   16.22079   61.74932    5.05665  -51.15179
  16.99700   18.52534   64.27003    4.99560  -50.16542
  17.01702   21.34977   66.97854    4.94634  -49.19137
  17.03704   24.84548   69.85114    4.90968  -48.22761
  17.05706   29.21321   72.82497    4.88664  -47.27201
  17.07708   34.71060   75.76292    4.87857  -46.32241
  17.09710   41.65509   78.39791    4.88718  -45.37644
  17.11712   50.39267   80.23930    4.91463  -44.43136
  17.13714   61.18411   80.44637    4.96368  -43.48479
  17.15716   73.93269   77.72231    5.03785  -42.53364
  17.17718   87.67134   70.42328    5.14166  -41.57470
   17.1972   100.0074    57.2749     5.2809   -40.6049
   17.2172   107.3726    38.8120     5.4631   -39.6207
   17.2372   106.9391    18.3501     5.6980   -38.6189
  17.25726   98.94176    0.50441    5.99850  -37.59628
  17.27728   86.46183  -11.75866    6.38170  -36.55100
  17.29730   72.99014  -18.22725    6.87013  -35.48334
  17.31732   60.71463  -20.29676    7.49384  -34.39759
  17.33734   50.45397  -19.58677    8.29251  -33.30636
  17.35736   42.23785  -17.33086    9.31708  -32.23714
  17.37738   35.78362  -14.31368   10.63007  -31.24382
  17.39740   30.74846  -10.98678   12.29889  -30.42502
  17.41742   26.82646   -7.59369   14.37236  -29.94959
  17.43744   23.77056   -4.25471   16.82522  -30.07603
  17.45746   21.39267   -1.02282   19.45450  -31.12657
  17.47748   19.55155    2.08730   21.77604  -33.33912
  17.49750   18.14320    5.08040   23.08655  -36.58079
  17.51752   17.09214    7.97152   22.85625  -40.17598
  17.53754   16.34422   10.78082   21.16891  -43.22511
  17.55756   15.86226   13.53113   18.64518  -45.17707
  17.57758   15.62290   16.24586   15.95910  -46.01595
  17.59760   15.61432   18.94918   13.52163  -46.02314
  17.61762   15.83543   21.66495   11.48148  -45.51295
  17.63764   16.29574   24.41733    9.83824  -44.72166
  17.65766   17.01623   27.23034    8.53479  -43.79851
  17.67768   18.03083   30.12635    7.50403  -42.82935
  17.69770   19.38978   33.12671    6.68596  -41.86018
  17.71772   21.16388   36.24817    6.03245  -40.91384
  17.73774   23.45017   39.49800    5.50662  -40.00055
  17.75776   26.38136   42.86729    5.08047  -39.12329
  17.77778   30.13455   46.31292    4.73313  -38.28174
  17.79780   34.94351   49.73291    4.44885  -37.47325
  17.81782   41.10352   52.91707    4.21581  -36.69470
  17.83784   48.95349   55.46698    4.02514  -35.94261
  17.85786   58.80344   56.68138    3.87015  -35.21334
  17.87788   70.72593   55.42799    3.74580  -34.50335
  17.89790   84.12200   50.14334    3.64842  -33.80944
  17.91792   97.13242   39.28930    3.57536  -33.12827
   17.9379   106.4662    22.5908     3.5248   -32.4567
   17.9580   108.7245     2.4159     3.4958   -31.7919
   17.9780   102.9226   -16.7405     3.4878   -31.1306
  17.99800   91.37650  -31.05520    3.50137  -30.47001
  18.01802   77.71766  -39.41232    3.53730  -29.80700
  18.03804   64.66479  -42.83327    3.59737  -29.13843
  18.05806   53.46009  -42.97120    3.68410  -28.46112
  18.07808   44.33760  -41.22304    3.80104  -27.77151
  18.09810   37.08134  -38.52216    3.95299  -27.06603
  18.11812   31.35156  -35.42382    4.14631  -26.34099
  18.13814   26.81965  -32.23396    4.38945  -25.59246
  18.15816   23.21473  -29.11168    4.69351  -24.81672
  18.17818   20.32450  -26.13185    5.07327  -24.01053
  18.19820   17.98766  -23.32336    5.54836  -23.17173
  18.21822   16.08317  -20.69178    6.14484  -22.30106
  18.23824   14.51937  -18.22955    6.89751  -21.40400
  18.25826   13.22704  -15.92347    7.85230  -20.49583
  18.27828   12.15379  -13.75858    9.06813  -19.60937
  18.29830   11.25920  -11.71871   10.61713  -18.80851
  18.31832   10.51239   -9.78905   12.57570  -18.21013
  18.33834    9.88930   -7.95514   14.99742  -18.01233
  18.35836    9.37122   -6.20364   17.84558  -18.51659
  18.37838    8.94377   -4.52255   20.87287  -20.09229
  18.39840    8.59570   -2.90068   23.50710  -22.99756
  18.41842    8.31845   -1.32735   24.94028  -27.04780
  18.43844    8.10571    0.20677   24.59545  -31.44170
  18.45846    7.95297    1.71110   22.61143  -35.15709
  18.47848    7.85737    3.19439   19.71630  -37.59887
  18.49850    7.81762    4.66492   16.66953  -38.77718
  18.51852    7.83389    6.13131   13.92184  -39.02220
  18.53854    7.90786    7.60185   11.63027  -38.69047
  18.55856    8.04288    9.08498    9.78851  -38.04644
  18.57858    8.24421   10.58976    8.32958  -37.25618
  18.59860    8.51926   12.12492    7.17687  -36.41493
  18.61862    8.87822   13.70040    6.26248  -35.57360
  18.63864    9.33471   15.32598    5.53208  -34.75755
  18.65866    9.90666   17.01218    4.94410  -33.97826
  18.67868   10.61794   18.76938    4.46697  -33.23907
  18.69870   11.49981   20.60766    4.07715  -32.53967
  18.71872   12.59393   22.53547    3.75685  -31.87748
  18.73874   13.95575   24.55741    3.49270  -31.24908
  18.75876   15.65876   26.66946    3.27465  -30.65084
  18.77878   17.80103   28.85281    3.09508  -30.07914
  18.79880   20.51145   31.05868    2.94829  -29.53034
  18.81882   23.95366   33.18482    2.83009  -29.00118
  18.83884   28.32353   35.03570    2.73744  -28.48825
  18.85886   33.81617   36.25885    2.66840  -27.98873
  18.87888   40.53461   36.26981    2.62188  -27.49981
  18.89890   48.27848   34.21409    2.59766  -27.01853
  18.91892   56.20399   29.13265    2.59645  -26.54258
  18.93894   62.59562   20.55371    2.61990  -26.06922
  18.95896   65.33854    9.37283    2.67084  -25.59616
  18.97898   63.31457   -2.00318    2.75349  -25.12140
  18.99900   57.38258  -11.03740    2.87391  -24.64330
  19.01902   49.61212  -16.58989    3.04052  -24.16127
  19.03904   41.83294  -18.98683    3.26477  -23.67643
  19.05906   35.00721  -19.16588    3.56211  -23.19322
  19.07908   29.40742  -18.01373    3.95261  -22.72194
  19.09910   24.95828  -16.15359    4.46111  -22.28342
  19.11912   21.47006  -13.96542    5.11472  -21.91634
  19.13914   18.74601  -11.66283    5.93374  -21.68741
  19.15916   16.61768   -9.35720    6.90981  -21.69941
  19.17918   14.95257   -7.10188    7.96511  -22.08280
  19.19920   13.65036   -4.91846    8.90836  -22.93783
  19.21922   12.63568   -2.81041    9.45566  -24.21990
  19.23924   11.85294   -0.77269    9.38366  -25.66397
  19.25926   11.26104    1.20492    8.71317  -26.90350
  19.27928   10.83005    3.13465    7.68988  -27.70451
  19.29930   10.53867    5.02926    6.59031  -28.05165
  19.31932   10.37224    6.90252    5.58700  -28.05632
  19.33934   10.32165    8.76808    4.74406  -27.84673
  19.35936   10.38253   10.63912    4.06330  -27.52071
  19.37938   10.55491   12.52972    3.52194  -27.14014
  19.39940   10.84302   14.45368    3.09264  -26.74083
  19.41942   11.25572   16.42536    2.75080  -26.34203
  19.43944   11.80704   18.45974    2.47659  -25.95338
  19.45946   12.51704   20.57165    2.25480  -25.57919
  19.47948   13.41355   22.77649    2.07387  -25.22078
  19.49950   14.53435   25.08968    1.92511  -24.87802
  19.51952   15.92986   27.52397    1.80205  -24.54999
  19.53954   17.66795   30.08885    1.69976  -24.23546
  19.55956   19.83959   32.78506    1.61453  -23.93301
  19.57958   22.56558   35.59569    1.54357  -23.64130
  19.59960   26.00675   38.47214    1.48477  -23.35893
  19.61962   30.37001   41.30604    1.43657  -23.08472
  19.63964   35.91071   43.88367    1.39783  -22.81732
  19.65966   42.90733   45.81118    1.36778  -22.55571
  19.67968   51.56984   46.41253    1.34597  -22.29869
  19.69970   61.82004   44.64332    1.33224  -22.04529
  19.71972   72.87801   39.17991    1.32674  -21.79450
  19.73974   82.81453   28.99644    1.32991  -21.54526
  19.75976   88.75250   14.52601    1.34259  -21.29669
  19.77978   88.41232   -1.55628    1.36602  -21.04774
  19.79980   81.98426  -15.52690    1.40200  -20.79762
  19.81982   71.95389  -24.99222    1.45306  -20.54563
  19.83984   61.13709  -29.77965    1.52264  -20.29135
  19.85986   51.29942  -31.01221    1.61540  -20.03515
  19.87988   43.10273  -29.99347    1.73764  -19.77820
  19.89990   36.57315  -27.71555    1.89759  -19.52422
  19.91992   31.48510  -24.80805    2.10568  -19.28046
  19.93994   27.56668  -21.63256    2.37393  -19.06087
  19.95996   24.57437  -18.38133    2.71335  -18.88996
  19.97998   22.31466  -15.14744    3.12669  -18.80785
  20.00000   20.64255  -11.96936    3.59313  -18.86951
# 
# YAMBO@anomaly.roma2.infn.it x 001 CPUs * 08/29/2008  10:05 [start]
#                                          08/29/2008  10:05 [end]
# 
# Cpu Timing [Min/Max/Average]: 04s/04s/04s
#
# .-Input file : Inputs/03_RPA_LF_QP
# | optics                       # [R OPT] Optics
# | bse                          # [R BSK] Bethe Salpeter Equation.
# | bss                          # [R BSS] Bethe Salpeter Equation solver
# | FFTGvecs=  9987          RL  # [FFT] Plane-waves
# | % KfnQP_E
# |  7.600000 | 1.000000 | 1.000000 |      # [EXTQP BSK BSS] E parameters (c/v)
# | %
# | BSresKmod= "x"               # [BSK] Resonant Kernel mode. (`x`;`c`;`d`)
# | % BSEBands
# |    1 | 200 |                 # [BSK] Bands range
# | %
# | BSENGBlk= 1              RL  # [BSK] Screened interaction block size
# | BSENGexx=  9045          RL  # [BSK] Exchange components
# | BSSmod= "d"                  # [BSS] Solvers `h/d/i/t`
# | % BEnRange
# |   0.00000 | 20.00000 |   eV  # [BSS] Energy range
# | %
# | % BDmRange
# |   0.10000 |  0.10000 |   eV  # [BSS] Damping range
# | %
# | BEnSteps= 1000               # [BSS] Energy steps
# | % BLongDir
# | 0.1000E-4 | 0.000    | 0.000    |      # [BSS] [cc] Electric Field
# | %
