#  ____  ____     _       ____    ____  ______      ___     
# |_  _||_  _|   / \     |_   \  /   _||_   _ \   ."   `.   
#   \ \  / /    / _ \      |   \/   |    | |_) | /  .-.  \  
#    \ \/ /    / ___ \     | |\  /| |    |  __". | |   | |  
#    _|  |_  _/ /   \ \_  _| |_\/_| |_  _| |__) |\  `-"  /  
#   |______||____| |____||_____||_____||_______/  `.___."   
#                                                           
#              GPL Version 3.1.2 Revision 297               
#                http://www.yambo-code.org                  
#
# Polarization (-<<X>>) [volume] @ IQ 1 :0.1000E-4  0.000     0.000
#
# - The gauge is transverse + [r,Vnl] -
#
# BSK|Identifier              :3740
#    |Dimension               :69
#    |Bands                   :1 - 70
#    |Exchange           [res]: yes
#    |Correlation        [res]: no
#    |Kernel`s coupling       : no
#    |Exchange           [cpl]: no
#    |Correlation        [cpl]: no
#    |ALDA kernel in R-space  : no
#    |RL vectors    [exchange]:123
#    |E/h energy range    [ev]:-1.000000 - -1.000000
#    |Coupling range     [o/o]: 100.0000 -  100.0000
#
#  E/ev[1]    alpha/Im   alpha/Re   alphao/Im  alphao/Re
#
   0.00000    0.08961    8.68359    0.12781   10.38624
   0.07538    0.09103    8.75162    0.13023   10.48348
   0.15075    0.09249    8.82085    0.13271   10.58249
   0.22613    0.09398    8.89110    0.13526   10.68344
   0.30151    0.09551    8.96255    0.13789   10.78645
   0.37688    0.09707    9.03503    0.14060   10.89125
   0.45226    0.09867    9.10885    0.14339   10.99826
   0.52764    0.10032    9.18385    0.14626   11.10736
   0.60302    0.10200    9.26003    0.14922   11.21867
   0.67839    0.10373    9.33756    0.15227   11.33236
   0.75377    0.10551    9.41641    0.15541   11.44827
   0.82915    0.10733    9.49660    0.15865   11.56656
   0.90452    0.10919    9.57812    0.16200   11.68736
   0.97990    0.11111    9.66113    0.16545   11.81068
   1.05528    0.11308    9.74562    0.16902   11.93667
   1.13065    0.11510    9.83159    0.17270   12.06533
   1.20603    0.11718    9.91904    0.17650   12.19696
   1.28141    0.11931   10.00812    0.18044   12.33140
   1.35678    0.12150   10.09884    0.18450   12.46895
   1.43216    0.12376   10.19133    0.18870   12.60947
   1.50754    0.12607   10.28545    0.19305   12.75324
   1.58291    0.12846   10.38135    0.19756   12.90043
   1.65829    0.13091   10.47903    0.20222   13.05103
   1.73367    0.13344   10.57864    0.20705   13.20518
   1.80905    0.13604   10.68017    0.21206   13.36304
   1.88442    0.13871   10.78364    0.21725   13.52475
   1.95980    0.14147   10.88917    0.22263   13.69047
   2.03518    0.14431   10.99693    0.22822   13.86018
   2.11055    0.14724   11.10676    0.23402   14.03435
   2.18593    0.15026   11.21882    0.24004   14.21281
   2.26131    0.15337   11.33310    0.24631   14.39602
   2.33668    0.15658   11.44990    0.25282   14.58397
   2.41206    0.15989   11.56923    0.25959   14.77695
   2.48744    0.16332   11.69092    0.26664   14.97513
   2.56281    0.16685   11.81528    0.27399   15.17879
   2.63819    0.17050   11.94231    0.28164   15.38808
   2.71357    0.17428   12.07230    0.28962   15.60316
   2.78894    0.17818   12.20496    0.29794   15.82446
   2.86432    0.18221   12.34073    0.30663   16.05213
   2.93970    0.18639   12.47962    0.31571   16.28647
   3.01508    0.19071   12.62162    0.32519   16.52778
   3.09045    0.19518   12.76703    0.33512   16.77636
   3.16583    0.19982   12.91585    0.34550   17.03263
   3.24121    0.20463   13.06822    0.35638   17.29692
   3.31658    0.20961   13.22415    0.36778   17.56965
   3.39196    0.21478   13.38409    0.37974   17.85098
   3.46734    0.22014   13.54788    0.39230   18.14165
   3.54271    0.22571   13.71581    0.40549   18.44210
   3.61809    0.23150   13.88790    0.41936   18.75263
   3.69347    0.23751   14.06459    0.43396   19.07384
   3.76884    0.24377   14.24586    0.44934   19.40630
   3.84422    0.25028   14.43189    0.46555   19.75063
   3.91960    0.25706   14.62295    0.48266   20.10756
   3.99497    0.26411   14.81935    0.50073   20.47767
   4.07035    0.27147   15.02093    0.51985   20.86172
   4.14573    0.27915   15.22830    0.54008   21.26059
   4.22111    0.28715   15.44159    0.56153   21.67518
   4.29648    0.29551   15.66096    0.58428   22.10636
   4.37186    0.30425   15.88686    0.60845   22.55519
   4.44724    0.31339   16.11942    0.63416   23.02269
   4.52261    0.32295   16.35910    0.66154   23.51005
   4.59799    0.33296   16.60604    0.69074   24.01876
   4.67337    0.34345   16.86069    0.72192   24.55014
   4.74874    0.35445   17.12350    0.75528   25.10569
   4.82412    0.36599   17.39475    0.79101   25.68717
   4.89950    0.37812   17.67474    0.82936   26.29652
   4.97487    0.39087   17.96437    0.87057   26.93567
   5.05025    0.40429   18.26364    0.91494   27.60698
   5.12563    0.41842   18.57328    0.96282   28.31282
   5.20101    0.43331   18.89389    1.01457   29.05602
   5.27638    0.44903   19.22606    1.07062   29.83954
   5.35176    0.46564   19.57039    1.13147   30.66693
   5.42714    0.48320   19.92746    1.19769   31.54189
   5.50251    0.50179   20.29817    1.26992   32.46860
   5.57789    0.52150   20.68311    1.34891   33.45206
   5.65327    0.54241   21.08347    1.43555   34.49734
   5.72864    0.56462   21.50012    1.53085   35.61066
   5.80402    0.58826   21.93383    1.63600   36.79883
   5.87940    0.61344   22.38591    1.75242   38.06985
   5.95477    0.64031   22.85756    1.88177   39.43248
   6.03015    0.66901   23.34997    2.02605   40.89709
   6.10553    0.69973   23.86475    2.18765   42.47568
   6.18090    0.73267   24.40355    2.36947   44.18219
   6.25628    0.76803   24.96784    2.57502   46.03263
   6.33166    0.80607   25.55955    2.80862   48.04611
   6.40704    0.84708   26.18106    3.07563   50.24532
   6.48241    0.89137   26.83458    3.38274   52.65708
   6.55779    0.93930   27.52249    3.73838   55.31371
   6.63317    0.99130   28.24805    4.15337   58.25463
   6.70854    1.04785   29.01407    4.64167   61.52788
   6.78392    1.10950   29.82442    5.22161   65.19302
   6.85930    1.17689   30.68308    5.91762   69.32449
   6.93467    1.25078   31.59451    6.76280   74.01714
   7.01005    1.33203   32.56390    7.80295   79.39265
   7.08543    1.42168   33.59718    9.10280   85.61052
   7.16080    1.52094   34.70101   10.75622   92.88287
    7.2362     1.6313    35.8831    12.9034   101.4987
    7.3116     1.7544    37.1521    15.7610   111.8602
    7.3869     1.8924    38.5184    19.6779   124.5424
    7.4623     2.0479    39.9938    25.2433   140.3914
    7.5377     2.2239    41.5924    33.5135   160.6929
    7.6131     2.4243    43.3306    46.5241   187.4576
    7.6884     2.6539    45.2284    68.5691   223.8717
    7.7638     2.9188    47.3090   109.7651   274.6425
    7.8392     3.2267    49.6010   196.9957   342.9924
    7.9146     3.5877    52.1392   402.6265   395.5281
    7.9899     4.0148    54.9669   749.5187   169.6159
    8.0653     4.5255    58.1375   614.0594  -323.3351
    8.1407     5.1434    61.7195   297.0666  -378.9101
    8.2161     5.9013    65.8002   152.7773  -308.5728
    8.2915     6.8456    70.4940    89.5902  -247.1151
    8.3668     8.0434    75.9534    58.1108  -202.7986
    8.4422     9.5953    82.3850    40.5293  -170.7461
    8.5176    11.6574    90.0774    29.8153  -146.8552
    8.5930    14.4815    99.4425    22.8408  -128.4815
    8.6683    18.4959   111.0884    18.0633  -113.9528
    8.7437    24.4733   125.9393    14.6576  -102.1870
    8.8191    33.9167   145.4427    12.1518   -92.4615
    8.8945    50.0357   171.8846    10.2614   -84.2775
    8.9698    80.5033   208.5541     8.8075   -77.2804
    9.0452   145.9707   256.8445     7.6741   -71.2101
    9.1206   300.2900   285.1869     6.7844   -65.8706
    9.1960   524.0134    90.3073     6.0880   -61.1083
    9.2714   383.6428  -213.2012     5.5536   -56.7985
    9.3467   185.7376  -224.6541     5.1670   -52.8332
    9.4221    99.2943  -173.9936     4.9328   -49.1111
    9.4975    61.5361  -131.1800     4.8844   -45.5261
   9.57286   43.35244  -98.82030    5.11335  -41.95260
   9.64824   34.48341  -73.21175    5.85079  -38.23253
   9.72362   31.40318  -51.19159    7.72085  -34.22928
   9.79900   33.90918  -30.29955   12.44575  -30.54976
   9.87437   45.62577   -9.00931   21.46032  -33.09981
   9.94975   78.22600    7.16933   19.67793  -44.74092
   10.0251   132.0213   -26.3673    10.8173   -45.4257
   10.1005   104.0299   -97.2653     6.5814   -41.9150
  10.17588   53.60073  -98.00877    4.75906  -38.55233
  10.25126   30.92027  -81.24457    3.91342  -35.64690
  10.32663   20.96315  -66.39506    3.54629  -33.03355
  10.40201   16.18732  -54.31097    3.50221  -30.53938
  10.47739   13.94024  -43.98105    3.79178  -28.00103
  10.55276   13.31079  -34.48238    4.59999  -25.23761
  10.62814   14.18421  -25.01082    6.49082  -22.07183
  10.70352   17.15868  -14.73145   11.08020  -18.84327
  10.77890   24.20753   -2.75275   20.94369  -20.37088
  10.85427   41.07026   10.57375   23.12434  -34.70056
  10.92965   80.40569   11.73909   12.58373  -39.11862
   11.0050   110.0406   -45.9803     6.8541   -36.3768
  11.08040   65.24758  -84.11730    4.42388  -33.41568
  11.15578   33.65660  -76.00194    3.29784  -30.98138
  11.23116   20.52179  -63.38506    2.76316  -28.93173
  11.30653   14.91261  -52.83080    2.58715  -27.09034
  11.38191   12.82018  -43.87574    2.76099  -25.31091
  11.45729   13.26562  -35.54967    3.52439  -23.50093
  11.53266   17.19025  -27.16371    5.64195  -22.01217
  11.60804   28.61809  -20.31640    9.20729  -23.74002
  11.68342   49.26284  -30.37033    7.45203  -28.09538
  11.75879   41.45930  -58.16666    4.07070  -27.82257
  11.83417   21.55465  -59.63431    2.53285  -26.35359
  11.90955   12.35761  -53.15867    1.84962  -25.01875
  11.98493    8.33181  -47.29016    1.51528  -23.88054
  12.06030    6.40644  -42.51793    1.35478  -22.87180
  12.13568    5.52401  -38.46317    1.31561  -21.92961
  12.21106    5.38739  -34.76489    1.41491  -21.00002
  12.28643    6.17249  -31.13954    1.77072  -20.04901
  12.36181    8.82096  -27.64589    2.73286  -19.24385
  12.43719   15.19768  -27.05655    4.32286  -19.89982
  12.51256   17.76374  -35.81588    3.50349  -21.68207
  12.58794   10.31499  -39.04102    2.00204  -21.39570
  12.66332    5.89364  -36.56841    1.32109  -20.59173
  12.73869    3.98319  -33.85035    1.01745  -19.84994
  12.81407    3.06972  -31.55412    0.86745  -19.19642
  12.88945    2.59494  -29.58644    0.79237  -18.60115
  12.96482    2.35720  -27.82064    0.76495  -18.03686
  13.04020    2.28862  -26.15645    0.78100  -17.48035
  13.11558    2.39348  -24.51457    0.85545  -16.91250
  13.19096    2.71045  -22.85186    1.01307  -16.32975
  13.26633    3.28235  -21.01128    1.28193  -15.67534
  13.34171    4.58149  -18.77190    1.92371  -14.89931
  13.41709    7.74043  -16.31916    3.51028  -14.42151
  13.49246   14.97116  -16.47494    5.48801  -16.37556
  13.56784   19.12274  -27.15719    3.78803  -18.76864
  13.64322   10.92360  -32.78053    1.98536  -18.48398
  13.71859    5.67463  -31.09403    1.20188  -17.76361
  13.79397    3.43772  -28.89097    0.84408  -17.14684
  13.86935    2.38972  -27.12695    0.65800  -16.64362
  13.94472    1.85799  -25.74046    0.55343  -16.22155
  14.02010    1.60826  -24.66902    0.49608  -15.86411
  14.09548    1.38625  -23.90062    0.44607  -15.56514
  14.17085    1.11948  -23.15023    0.39281  -15.27899
  14.24623    0.94595  -22.43134    0.35583  -15.00655
  14.32161    0.83125  -21.78516    0.32923  -14.75257
  14.39699    0.74755  -21.20256    0.30848  -14.51467
  14.47236    0.68242  -20.67133    0.29145  -14.29011
  14.54774    0.62964  -20.18211    0.27702  -14.07704
  14.62312    0.58564  -19.72795    0.26450  -13.87375
  14.69849    0.54816  -19.30351    0.25345  -13.67920
  14.77387    0.51570  -18.90486    0.24357  -13.49244
  14.84925    0.48722  -18.52867    0.23464  -13.31264
  14.92462    0.46194  -18.17241    0.22648  -13.13922
  15.00000    0.43929  -17.83394    0.21898  -12.97165
# 
# YAMBO@anomaly.roma2.infn.it x 001 CPUs * 08/29/2008  10:04 [start]
#                                          08/29/2008  10:04 [end]
# 
# Cpu Timing [Min/Max/Average]: 02s/02s/02s
#
# .-Input file : Inputs/03_RPA_LF_r_space
# | optics                       # [R OPT] Optics
# | bse                          # [R BSK] Bethe Salpeter Equation.
# | bss                          # [R BSS] Bethe Salpeter Equation solver
# | FFTGvecs=  9987          RL  # [FFT] Plane-waves
# | BSresKmod= "x"               # [BSK] Resonant Kernel mode. (`x`;`c`;`d`)
# | % BSEBands
# |    1 |  70 |                 # [BSK] Bands range
# | %
# | BSENGBlk= 1              RL  # [BSK] Screened interaction block size
# | BSENGexx= 123            RL  # [BSK] Exchange components
# | BSSmod= "d"                  # [BSS] Solvers `h/d/i/t`
# | % BEnRange
# |   0.00000 | 15.00000 |   eV  # [BSS] Energy range
# | %
# | % BDmRange
# |   0.10000 |  0.10000 |   eV  # [BSS] Damping range
# | %
# | BEnSteps= 200                # [BSS] Energy steps
# | % BLongDir
# | 0.1000E-4 | 0.000    | 0.000    |      # [BSS] [cc] Electric Field
# | %
